COMMAND 1 SAMPLE 1
Accel X : 2803;2815;2797;2776;2793;2771;2804;2790;2797;2792;2820;2834;2823;2823;2836;2883;2952;3023;3188;3426;3653;3877;4069;4068;4067;4067;4066;4066;4063;3928;3570;3153;2832;2655;2523;2455;2327;2159;2042;1851;1822;1747;1699;1650;1559;1448;1314;1116;910;572;17;19;18;19;21;194;63;26;26;137;540;1035;1281;1291;1178;1052;998;1114;1217;1382;1603;1688;1746;1850;1972;2050;2139;2311;2532;2543;2537;2369;2236;2299;2615;3113;3537;3799;3722;3412;3158;3091;3146;3525;3876;4065;4068;3877;3751;3687
Accel Y : 2311;2316;2291;2294;2325;2306;2300;2320;2335;2294;2299;2310;2317;2284;2303;2304;2289;2239;2209;2192;2217;2371;2457;2577;2685;2873;3043;3163;3279;3206;3033;2842;2699;2584;2569;2538;2618;2660;2712;2676;2644;2576;2567;2621;2643;2511;2523;2402;2378;2304;2216;2104;1803;2163;1879;1573;1545;1557;1570;1689;1842;1882;1798;1681;1636;1633;1714;1719;1779;1879;2085;2265;2399;2471;2470;2431;2418;2472;2677;2840;2963;3072;3140;3221;3261;3281;3333;3369;3438;3457;3363;3218;3012;2742;2536;2386;2281;2407;2564;2599
Accel Z : 1691;1680;1697;1722;1704;1705;1689;1689;1712;1707;1719;1691;1665;1704;1690;1655;1566;1420;1234;1148;1178;1182;1086;1025;1060;1210;1293;1365;1440;1540;1583;1607;1699;1688;1780;1791;1762;1767;1713;1655;1606;1418;1433;1461;1387;1294;1202;1199;1209;1273;1324;1377;968;875;1255;1543;1231;1116;1282;1546;1891;2077;2001;1891;1817;1697;1542;1394;1281;1424;1676;1839;1901;1881;1751;1499;1333;1385;1737;1783;1877;1820;1720;1656;1355;1356;1452;1726;1902;1763;1740;1534;1222;1256;1235;1181;1379;1685;1824;1812
Gyro X : 1832;1834;1842;1844;1845;1839;1832;1824;1824;1823;1823;1829;1834;1836;1822;1795;1758;1707;1641;1591;1567;1531;1521;1515;1561;1688;1867;2071;2281;2461;2601;2644;2630;2570;2542;2532;2551;2555;2568;2539;2493;2443;2368;2325;2327;2303;2310;2254;2205;2195;2228;2392;2555;2342;2092;1971;1788;1304;945;767;756;1026;1361;1621;1778;1792;1652;1477;1309;1127;1075;1129;1186;1221;1257;1320;1322;1378;1475;1573;1518;1457;1325;1215;1294;1472;1783;2125;2351;2319;2112;1817;1520;1347;1364;1515;1693;1815;1867;1863
Gyro Y : 1661;1661;1661;1664;1662;1660;1659;1658;1658;1658;1657;1660;1655;1656;1659;1663;1668;1694;1733;1776;1864;1934;2001;2049;2099;2129;2141;2139;2112;2057;1986;1924;1871;1822;1773;1730;1694;1650;1601;1562;1531;1506;1510;1505;1485;1480;1490;1501;1530;1542;1568;1559;1532;1629;1693;1782;1811;1846;1849;1825;1789;1738;1700;1691;1716;1750;1779;1811;1852;1883;1877;1834;1785;1742;1699;1678;1686;1717;1709;1649;1613;1571;1518;1445;1367;1315;1287;1280;1289;1278;1271;1268;1279;1330;1413;1507;1623;1713;1748;1751
Gyro Z : 1840;1840;1843;1846;1848;1848;1848;1850;1851;1852;1852;1855;1854;1857;1854;1842;1820;1784;1721;1633;1510;1364;1215;1070;932;817;720;642;579;535;507;490;482;478;478;483;492;498;508;526;538;548;552;573;596;622;642;665;705;771;878;1053;1320;1615;1931;2156;2296;2320;2362;2436;2522;2596;2658;2710;2758;2795;2817;2838;2863;2894;2929;2958;2985;3013;3030;3047;3061;3094;3125;3129;3114;3097;3088;3083;3097;3104;3111;3098;3039;2952;2826;2697;2564;2440;2318;2203;2104;2029;1967;1917
COMMAND 1 SAMPLE 2
Accel X : 4037;4065;4065;4059;3936;3791;3635;3388;3136;2942;2755;2598;2465;2333;2200;2100;2054;1999;1855;1630;1324;944;560;107;247;291;338;96;18;20;20;21;20;23;22;23;25;201;477;699;858;1004;1182;1359;1483;1580;1641;1745;1836;1919;1925;1919;1936;1983;2097;2269;2489;2745;2849;2835;2762;2688;2773;3093;3605;4074;4075;4072;4075;3803;3199;2694;2572;2776;3147;3518;3804;3942;3931;3859;3623;3375;3035;2745;2589;2568;2642;2727;2865;2979;3043;3064;3018;2941;2864;2804;2743;2739;2749;2721
Accel Y : 2491;2560;2594;2630;2650;2699;2678;2624;2526;2465;2416;2419;2406;2459;2519;2523;2557;2601;2705;2762;2834;2882;2862;2774;2603;2698;2731;2629;2557;2440;2297;2210;2280;2133;2143;2174;2189;2207;2243;2206;2202;2203;2183;2131;2047;1976;1911;1849;1784;1772;1837;1947;2106;2163;2253;2383;2515;2566;2565;2654;2817;3005;3222;3424;3415;3350;3205;3114;2916;2542;2214;1994;2024;2229;2291;2152;2064;2090;2197;2258;2258;2245;2270;2249;2229;2213;2207;2167;2187;2213;2223;2216;2206;2233;2251;2213;2202;2203;2222;2210
Accel Z : 1329;1310;1261;1291;1313;1357;1418;1482;1568;1615;1723;1778;1788;1733;1722;1777;1837;1822;1849;1849;1852;1797;1734;1450;1906;1834;1978;1840;1551;1119;844;840;1000;1010;856;879;908;976;1094;1251;1388;1514;1628;1700;1768;1794;1854;1890;1897;1903;1826;1818;1789;1793;1785;1840;1965;2075;2068;1925;1797;1707;1617;1567;1703;1787;1885;1819;1510;1045;698;940;1405;1678;1864;1845;1702;1648;1592;1631;1624;1674;1802;1878;1943;1967;1966;1934;1904;1927;1907;1882;1868;1857;1892;1879;1880;1894;1904;1892
Gyro X : 1802;1812;1826;1835;1838;1830;1802;1782;1753;1721;1680;1612;1555;1541;1553;1609;1745;1944;2139;2257;2308;2299;2285;2254;2235;2240;2237;2256;2311;2354;2459;2567;2640;2702;2734;2739;2747;2815;2877;2798;2589;2415;2293;2172;2060;1955;1836;1830;1877;1757;1632;1479;1365;1306;1259;1124;1015;1007;1085;1154;1080;930;722;627;949;2179;2709;2617;2516;2499;2511;2520;2391;2179;2000;1882;1835;1773;1664;1587;1557;1561;1588;1599;1604;1640;1708;1790;1871;1943;1989;2015;2047;2071;2074;2057;2021;1986;1954;1931
Gyro Y : 1702;1711;1728;1743;1756;1771;1796;1829;1821;1784;1795;1810;1820;1832;1848;1881;1909;1925;1940;1942;1941;1929;1914;1900;1887;1873;1850;1826;1792;1761;1728;1682;1636;1590;1528;1472;1395;1298;1273;1272;1263;1260;1260;1308;1376;1468;1575;1707;1832;1964;2072;2150;2192;2219;2212;2186;2177;2162;2113;1997;1893;1881;1913;1989;1775;1338;1409;1642;1858;1916;1860;1819;1781;1720;1620;1519;1501;1542;1586;1602;1581;1545;1527;1543;1575;1606;1622;1627;1616;1614;1623;1637;1646;1651;1657;1663;1661;1659;1659;1657
Gyro Z : 1814;1802;1785;1765;1742;1722;1699;1675;1640;1593;1553;1508;1460;1409;1350;1285;1213;1131;1050;967;890;822;761;711;667;631;607;590;581;578;574;572;567;571;585;600;611;632;688;780;885;1000;1164;1351;1549;1776;2020;2286;2529;2745;2921;3053;3160;3234;3287;3332;3380;3427;3439;3385;3379;3399;3395;3439;3460;3412;3366;3306;3177;3016;2816;2624;2442;2289;2167;2049;1980;1933;1884;1834;1791;1752;1725;1709;1701;1700;1707;1718;1729;1738;1747;1753;1760;1764;1765;1765;1760;1758;1751;1747
COMMAND 1 SAMPLE 3
Accel X : 3067;3139;3235;3303;3373;3447;3490;3601;3718;3820;3808;3788;3774;3707;3623;3498;3326;3168;3009;2879;2760;2661;2623;2509;2374;2265;2139;2018;1952;1828;1790;1804;1783;1767;1711;1585;1464;1277;983;649;112;17;17;19;20;21;22;25;23;394;771;921;985;1033;1211;1416;1565;1778;1914;1977;1982;1967;1941;1922;1898;1878;1876;1962;2083;2176;2259;2436;2709;3075;3253;3154;2913;2788;2894;3178;3422;3638;3786;3718;3357;2929;2659;2705;3059;3431;3580;3530;3441;3397;3387;3343;3162;3024;2902;2851
Accel Y : 2196;2159;2134;2167;2183;2241;2264;2327;2365;2441;2417;2482;2531;2533;2582;2563;2542;2487;2416;2303;2207;2135;2126;2128;2164;2105;2082;2035;1998;2037;2045;2095;2197;2305;2337;2391;2416;2417;2394;2339;2245;2151;2133;2150;2229;1927;1889;1981;2096;2125;2016;1905;1927;1962;1886;1859;1833;1819;1753;1689;1716;1739;1758;1771;1859;1868;1936;1980;2070;2115;2188;2338;2483;2537;2486;2464;2579;2653;2765;2862;2894;2835;2767;2653;2525;2421;2291;2174;2209;2220;2155;2097;2103;2128;2170;2157;2232;2225;2216;2177
Accel Z : 1927;1894;1872;1838;1802;1779;1752;1723;1679;1651;1680;1643;1670;1693;1735;1721;1723;1736;1744;1733;1751;1790;1826;1828;1893;1857;1859;1826;1849;1820;1753;1760;1773;1794;1818;1823;1851;1847;1784;1633;1551;1379;688;228;979;1417;1312;1292;1365;1455;1501;1570;1573;1611;1791;1897;1985;2005;2049;2024;1979;1956;1964;1928;1918;1875;1865;1890;1887;1919;1917;1904;1986;2103;2210;2161;2110;2073;1950;1840;1813;1830;1925;1973;1879;1761;1584;1634;1829;2008;1997;1932;1898;1918;1927;1963;1922;1943;1927;1932
Gyro X : 1832;1831;1838;1837;1838;1834;1831;1828;1828;1814;1784;1743;1707;1661;1605;1533;1460;1427;1434;1493;1608;1763;1891;1992;2054;2102;2139;2200;2259;2306;2344;2358;2344;2355;2363;2402;2478;2559;2580;2566;2506;2436;2376;2304;2258;2276;2349;2481;2793;2886;2261;1794;1695;1368;978;939;1266;1498;1750;1887;1954;1946;1820;1676;1587;1579;1643;1690;1663;1526;1378;1262;1170;1124;1161;1302;1480;1677;1792;1784;1641;1448;1294;1389;1692;1952;2097;2026;1835;1572;1333;1330;1507;1759;1976;2048;1970;1825;1683;1568
Gyro Y : 1661;1663;1662;1661;1662;1662;1661;1663;1666;1665;1674;1689;1707;1727;1758;1806;1858;1904;1959;2011;2052;2085;2114;2133;2133;2120;2102;2080;2054;2015;1969;1932;1909;1886;1865;1836;1797;1775;1748;1716;1681;1685;1678;1689;1705;1697;1687;1668;1590;1638;1776;1705;1666;1671;1758;1778;1680;1652;1653;1681;1709;1712;1726;1738;1729;1694;1654;1625;1624;1650;1674;1678;1661;1625;1575;1531;1512;1526;1558;1601;1624;1617;1592;1550;1514;1524;1562;1607;1635;1629;1583;1515;1469;1464;1501;1539;1547;1530;1511;1501
Gyro Z : 1839;1840;1842;1840;1843;1842;1841;1839;1836;1825;1810;1787;1755;1704;1637;1554;1451;1343;1241;1152;1072;1002;932;865;799;742;688;650;631;621;620;619;609;605;612;615;629;643;655;653;657;664;670;678;701;746;830;960;1211;1451;1828;2038;2165;2175;2175;2180;2147;2114;2071;2059;2053;2061;2096;2151;2224;2303;2387;2467;2546;2627;2687;2732;2761;2780;2807;2836;2865;2896;2906;2898;2884;2867;2863;2888;2919;2941;2927;2884;2839;2795;2749;2710;2692;2670;2643;2606;2550;2491;2433;2374
COMMAND 1 SAMPLE 4
Accel X : 3330;3298;3279;3286;3338;3410;3377;3353;3375;3364;3284;3212;3159;3039;2893;2729;2603;2497;2435;2347;2238;2102;1937;1787;1583;1321;1011;838;756;759;666;432;189;23;20;20;21;21;22;24;22;23;24;29;256;460;674;971;1198;1419;1613;1792;2049;2127;2070;2050;2350;2998;3726;4071;3781;3107;2819;3190;3748;4078;4077;4073;3904;3666;3573;3495;3358;3191;3056;3055;3044;3059;3003;2963;2901;2875;2787;2672;2592;2611;2683;2768;2799;2798;2751;2754;2765;2805;2842;2857;2873;2840;2817;2815
Accel Y : 2379;2381;2384;2421;2439;2445;2482;2442;2457;2429;2351;2294;2247;2206;2147;2071;2014;2017;2009;2044;2063;2072;2066;2126;2167;2177;2152;2086;1993;2034;2067;2040;2057;2000;1910;1960;1961;1955;1973;1989;1937;1980;1988;2005;2053;2064;2083;2094;2083;2096;2158;2132;2157;2138;2131;2279;2518;2851;3123;3866;3371;3123;3243;3695;3957;3711;3434;3163;2908;2660;2432;2357;2434;2547;2561;2448;2358;2323;2319;2313;2285;2208;2140;2084;2038;2011;2039;2085;2110;2132;2157;2155;2187;2202;2209;2216;2207;2214;2208;2223
Accel Z : 1594;1575;1645;1666;1642;1664;1662;1604;1640;1634;1644;1695;1703;1806;1907;1947;2010;2046;1961;1970;1914;1898;1838;1838;1853;1773;1697;1631;1661;1544;1556;1491;1434;1463;1438;1417;1419;1435;1477;1466;1473;1457;1462;1523;1627;1655;1685;1738;1797;1886;1889;1806;1787;1791;1625;1397;1265;1372;1883;2157;1737;1758;1507;1735;2057;2316;2194;1837;1541;1454;1760;2078;2198;2221;2221;2231;2148;2130;2093;2111;2100;2129;2146;2206;2190;2221;2240;2243;2276;2258;2188;2169;2109;2047;2061;2054;2063;2059;2029;2012
Gyro X : 1841;1838;1830;1812;1804;1780;1748;1684;1628;1600;1601;1645;1655;1614;1539;1489;1551;1718;1895;2032;2082;2078;2079;2101;2183;2268;2306;2321;2264;2261;2313;2427;2520;2567;2562;2520;2484;2409;2344;2292;2246;2206;2248;2435;2816;2917;2301;1716;1664;1474;1091;968;1180;1545;1840;1980;2040;1962;1730;1493;1301;1200;1263;1375;1486;1522;1476;1393;1323;1296;1404;1590;1840;1928;1875;1670;1426;1178;1225;1462;1818;2157;2296;2196;1984;1731;1553;1466;1486;1547;1607;1656;1701;1731;1748;1753;1752;1749;1740;1738
Gyro Y : 1661;1663;1663;1670;1680;1690;1706;1732;1757;1780;1814;1865;1906;1938;1974;2015;2058;2099;2122;2136;2137;2127;2107;2083;2069;2042;2009;1978;1950;1939;1917;1894;1853;1837;1816;1809;1796;1779;1787;1781;1799;1819;1818;1790;1686;1694;1693;1661;1592;1608;1724;1754;1676;1607;1580;1603;1659;1707;1752;1781;1773;1737;1684;1643;1631;1637;1663;1669;1645;1602;1571;1576;1608;1642;1673;1681;1657;1605;1535;1473;1466;1500;1523;1530;1534;1525;1523;1539;1563;1582;1593;1599;1608;1621;1636;1651;1661;1666;1667;1669
Gyro Z : 1837;1832;1823;1812;1798;1776;1747;1706;1649;1581;1509;1433;1345;1251;1160;1072;998;940;885;830;771;715;681;654;643;637;626;614;595;595;606;612;621;621;624;632;638;639;640;644;664;701;785;951;1240;1514;1857;1997;2100;2166;2227;2323;2408;2474;2515;2559;2624;2679;2733;2796;2847;2898;2953;2994;3031;3057;3068;3059;3050;3042;3051;3060;3081;3072;3023;2967;2917;2859;2820;2787;2745;2684;2607;2515;2423;2349;2294;2249;2212;2172;2134;2094;2048;2004;1964;1932;1903;1875;1850;1830
COMMAND 1 SAMPLE 5
Accel X : 2886;2861;2867;2949;3064;3171;3273;3340;3404;3534;3776;4027;4065;4066;4066;3945;3765;3547;3418;3298;3169;2969;2775;2578;2417;2385;2316;2212;2080;1783;1595;1491;1408;1342;1249;1031;701;170;18;19;19;19;21;22;23;255;886;1289;1365;1250;1076;821;598;582;735;1109;1475;1667;1636;1548;1629;1867;2105;2406;2750;2903;2977;2777;2466;2176;2022;2399;3038;3620;3775;3655;3471;3354;3242;3225;3273;3335;3420;3492;3547;3643;3766;3840;3683;3410;3262;3245;3243;3295;3234;3127;3056;3016;2987;2933
Accel Y : 2284;2276;2263;2263;2249;2214;2223;2239;2279;2311;2344;2340;2450;2627;2745;2837;2815;2766;2671;2585;2607;2595;2544;2472;2421;2414;2419;2363;2387;2355;2389;2376;2348;2328;2357;2384;2377;2301;2199;1923;1936;2338;2024;1636;1494;1569;1827;1920;1756;1532;1386;1436;1566;1718;1882;1988;2079;2153;2115;2093;2172;2345;2509;2573;2583;2526;2383;2363;2422;2573;2765;3080;3266;3166;2900;2714;2702;2777;2828;2739;2662;2619;2562;2524;2497;2487;2449;2409;2372;2373;2405;2438;2445;2460;2472;2477;2456;2453;2437;2438
Accel Z : 1785;1794;1722;1701;1599;1574;1499;1437;1403;1369;1271;1207;1262;1353;1397;1359;1334;1268;1306;1336;1422;1543;1601;1668;1645;1697;1722;1644;1565;1537;1593;1487;1468;1468;1474;1597;1705;1939;2138;2312;1871;1391;1999;1625;1305;1684;2170;2237;2104;1954;1794;1711;1624;1682;1834;1934;2025;1893;1572;1390;1470;1591;1659;1715;1748;1497;1519;1539;1643;1607;1590;1786;1745;1840;1717;1720;1746;1779;1746;1733;1784;1775;1665;1691;1614;1587;1637;1631;1676;1688;1713;1729;1830;1834;1813;1793;1797;1752;1721;1715
Gyro X : 1844;1844;1843;1841;1844;1846;1847;1849;1847;1805;1735;1671;1597;1607;1697;1802;1842;1820;1770;1791;1893;2062;2190;2258;2237;2202;2213;2320;2458;2553;2618;2602;2542;2482;2386;2286;2219;2221;2237;2237;2208;2235;2295;2263;2051;1864;1680;1460;1326;1284;1346;1504;1671;1789;1825;1783;1663;1546;1456;1414;1400;1374;1391;1457;1547;1598;1565;1426;1215;1151;1309;1678;1995;2161;2013;1772;1448;1176;1101;1295;1608;1903;2112;2152;2094;1945;1770;1674;1640;1666;1672;1644;1621;1614;1633;1687;1757;1822;1867;1877
Gyro Y : 1664;1667;1666;1667;1670;1672;1675;1683;1692;1706;1717;1723;1752;1778;1833;1910;1954;1991;2009;2031;2061;2069;2067;2042;2007;1983;1950;1921;1887;1842;1792;1742;1697;1665;1657;1669;1687;1688;1677;1659;1669;1673;1662;1663;1719;1705;1677;1696;1711;1718;1718;1696;1675;1668;1677;1687;1696;1697;1682;1664;1645;1634;1638;1642;1639;1637;1631;1620;1607;1571;1517;1479;1507;1561;1608;1632;1610;1545;1458;1387;1360;1387;1431;1465;1481;1482;1479;1485;1503;1522;1537;1535;1543;1558;1575;1596;1606;1618;1629;1638
Gyro Z : 1835;1837;1834;1831;1826;1821;1814;1806;1794;1766;1723;1663;1582;1488;1392;1278;1148;1013;886;779;686;615;556;505;467;444;426;425;432;432;431;446;459;478;504;542;592;664;743;839;968;1139;1366;1608;1835;2028;2144;2227;2293;2351;2393;2424;2450;2479;2508;2542;2582;2628;2666;2706;2744;2781;2834;2873;2897;2912;2911;2887;2863;2869;2894;2924;2936;2918;2857;2807;2761;2703;2650;2617;2591;2562;2524;2476;2438;2389;2333;2282;2240;2207;2167;2122;2088;2054;2023;1997;1973;1949;1928;1904
COMMAND 1 SAMPLE 6
Accel X : 2837;2836;2854;2837;2816;2839;2880;2849;2879;2881;2881;2924;3043;3131;3180;3288;3430;3618;3775;3971;4067;4066;4063;3935;3820;3708;3575;3418;3207;2964;2721;2594;2514;2424;2328;2234;2176;2082;1899;1741;1619;1590;1515;1355;1269;1000;430;18;18;19;20;21;378;347;779;1497;2159;2471;2415;2080;1540;1051;692;572;551;633;651;533;443;529;801;1132;1406;1617;1849;2041;2221;2314;2285;2163;2110;2132;2301;2665;2951;3027;2816;2559;2407;2394;2631;3181;3569;3619;3457;3176;3030;3058;3161;3306
Accel Y : 2331;2325;2320;2338;2322;2328;2321;2331;2310;2303;2317;2330;2294;2296;2275;2273;2319;2383;2419;2499;2581;2635;2715;2809;2872;2928;2861;2792;2712;2653;2519;2396;2329;2383;2403;2453;2445;2391;2372;2382;2327;2281;2261;2239;2282;2326;2285;2193;1759;1716;2308;1837;1468;1426;1379;1478;1698;1644;1441;1182;1091;1153;1261;1329;1443;1541;1580;1578;1553;1620;1694;1802;1914;2009;2059;2036;2033;2004;2004;2099;2230;2342;2442;2535;2517;2479;2466;2592;2703;2908;3009;2988;2835;2607;2473;2491;2611;2693;2638;2578
Accel Z : 1677;1719;1708;1713;1704;1693;1715;1707;1702;1671;1642;1598;1556;1412;1339;1252;1305;1158;1178;1210;1194;1153;1166;1226;1295;1335;1368;1405;1547;1636;1710;1738;1735;1703;1747;1783;1627;1658;1698;1588;1478;1420;1395;1426;1549;1626;1718;1819;1864;1217;1171;1810;1614;1191;1418;1995;2225;2135;1862;1777;1766;1750;1768;1855;2016;2138;2141;2049;1915;1807;1776;1775;1837;1871;1844;1760;1709;1650;1604;1572;1675;1712;1675;1635;1578;1519;1373;1444;1605;1676;1699;1582;1465;1415;1488;1647;1833;1863;1809;1733
Gyro X : 1842;1842;1843;1844;1845;1837;1828;1805;1796;1784;1729;1703;1651;1588;1547;1577;1641;1734;1835;1921;1981;2049;2129;2204;2240;2246;2252;2272;2330;2367;2405;2397;2362;2371;2418;2467;2459;2403;2333;2246;2188;2241;2504;3153;3013;1880;1361;1284;890;648;1122;1719;1892;1963;1960;1818;1617;1485;1422;1388;1421;1460;1453;1408;1367;1308;1300;1433;1556;1675;1643;1518;1294;1193;1390;1768;2128;2293;2203;1930;1686;1514;1487;1539;1646;1723;1779;1811;1788;1757;1743;1755;1779;1799;1794;1776;1758;1750;1774;1819
Gyro Y : 1667;1667;1668;1670;1666;1667;1667;1674;1686;1703;1751;1775;1799;1861;1907;1962;2011;2049;2075;2092;2099;2090;2077;2052;2029;2007;1971;1935;1903;1879;1861;1822;1796;1768;1745;1728;1714;1696;1699;1708;1734;1727;1698;1582;1670;1739;1642;1525;1584;1660;1624;1554;1587;1620;1638;1682;1726;1736;1713;1688;1657;1633;1632;1629;1627;1637;1648;1605;1589;1582;1580;1575;1562;1511;1444;1409;1443;1501;1547;1560;1536;1487;1458;1454;1467;1478;1483;1489;1488;1492;1509;1523;1537;1549;1562;1568;1585;1590;1600;1620
Gyro Z : 1833;1832;1833;1834;1832;1829;1825;1815;1803;1768;1721;1645;1553;1447;1338;1226;1117;1010;917;839;768;706;659;617;580;548;532;510;493;478;459;446;427;419;423;425;419;419;433;463;522;632;849;1231;1591;1989;2124;2256;2396;2523;2603;2611;2625;2655;2701;2754;2803;2852;2895;2924;2948;2968;2985;2999;2995;2997;3002;2993;2999;2985;2959;2913;2874;2842;2831;2825;2800;2742;2675;2595;2531;2476;2439;2410;2391;2368;2348;2316;2276;2240;2212;2181;2149;2114;2082;2045;2011;1972;1938;1906
COMMAND 1 SAMPLE 7
Accel X : 2871;2852;2866;2886;2923;2943;3010;3044;3178;3291;3478;3630;3649;3568;3654;3801;4067;4069;4065;3904;3642;3476;3367;3304;3155;2962;2732;2523;2351;2317;2270;2312;2198;2018;1853;1694;1604;1535;1470;1327;1137;788;241;16;18;20;21;68;497;160;92;472;991;1324;1346;1206;923;577;414;497;723;1034;1312;1521;1619;1706;1871;2102;2291;2454;2768;3034;3019;2786;2566;2487;2483;2676;3231;3771;4063;3956;3463;3071;2931;3008;3291;3455;3506;3512;3503;3539;3537;3525;3474;3417;3365;3314;3276;3252
Accel Y : 2360;2353;2354;2333;2341;2350;2350;2331;2329;2335;2315;2334;2390;2470;2494;2539;2597;2659;2684;2740;2752;2780;2713;2608;2510;2461;2403;2368;2328;2319;2278;2319;2351;2391;2403;2408;2423;2437;2438;2419;2345;2331;2335;2269;2069;2372;2341;1922;1569;1460;1427;1738;2020;2030;1830;1558;1435;1464;1610;1801;1957;2095;2187;2203;2207;2205;2225;2354;2456;2519;2523;2558;2545;2623;2699;2877;3016;3092;3094;2971;2769;2611;2563;2551;2570;2515;2428;2356;2308;2315;2371;2390;2386;2315;2294;2330;2356;2341;2355;2306
Accel Z : 1669;1683;1649;1640;1593;1588;1522;1471;1382;1297;1322;1324;1297;1239;1191;1158;1200;1195;1181;1208;1215;1306;1426;1453;1551;1603;1670;1641;1572;1709;1771;1742;1555;1452;1381;1401;1453;1465;1433;1444;1461;1682;1902;2201;2324;1806;1170;1645;1680;1267;1504;2045;2214;2095;1839;1736;1726;1577;1613;1683;1823;1938;1922;1881;1720;1572;1560;1626;1596;1601;1453;1501;1614;1575;1592;1560;1556;1490;1447;1398;1560;1751;1763;1785;1743;1683;1658;1626;1626;1691;1734;1818;1766;1707;1703;1681;1654;1671;1693;1667
Gyro X : 1846;1834;1810;1793;1789;1804;1835;1857;1860;1801;1692;1595;1514;1528;1607;1699;1762;1790;1799;1808;1834;1888;1929;1943;1963;1951;1977;1994;2069;2151;2291;2392;2423;2433;2384;2349;2336;2291;2298;2458;3066;3598;2270;870;1112;1085;890;1510;1800;1817;1822;1854;1808;1739;1686;1619;1556;1524;1562;1642;1635;1535;1445;1455;1525;1708;1900;2088;2206;2060;1835;1554;1435;1515;1746;1974;2084;2019;1861;1716;1593;1559;1569;1645;1706;1757;1795;1761;1706;1650;1617;1629;1694;1776;1857;1906;1906;1871;1837;1826
Gyro Y : 1680;1683;1688;1691;1704;1723;1748;1768;1784;1797;1819;1845;1876;1919;1945;1981;2005;2023;2033;2048;2064;2073;2080;2080;2078;2073;2081;2078;2076;2077;2079;2069;2064;2070;2069;2071;2068;2081;2087;2085;1898;1719;1656;1619;1518;1440;1570;1499;1479;1575;1575;1576;1607;1626;1600;1557;1524;1493;1468;1444;1446;1487;1512;1478;1448;1447;1447;1484;1542;1595;1641;1653;1607;1544;1488;1503;1542;1573;1590;1583;1561;1541;1534;1536;1537;1547;1560;1570;1580;1585;1590;1593;1598;1607;1618;1627;1634;1640;1645;1652
Gyro Z : 1791;1781;1767;1749;1731;1706;1676;1638;1592;1532;1461;1382;1294;1211;1128;1047;965;885;817;758;702;658;625;590;570;548;527;500;485;465;457;437;421;406;393;396;408;444;528;711;1124;1483;2010;2140;2331;2413;2557;2581;2549;2548;2563;2605;2657;2717;2777;2839;2902;2945;2983;3001;3007;3009;3000;2990;2990;2997;2979;2960;2948;2907;2866;2825;2787;2739;2699;2657;2604;2550;2500;2453;2403;2365;2323;2300;2279;2260;2236;2202;2169;2130;2095;2066;2038;2015;1994;1971;1946;1926;1906;1889
COMMAND 1 SAMPLE 8
Accel X : 2852;2841;2870;2886;2896;2903;2919;2941;2958;2935;3025;3105;3329;3565;3896;4003;3999;3979;4062;4068;4065;4065;3932;3524;3191;2957;2936;2872;2722;2488;2139;1790;1569;1351;1170;1024;900;710;450;107;17;18;20;20;21;21;26;259;526;794;1125;1404;1512;1449;1257;1017;867;908;1034;1198;1299;1387;1576;1786;1954;2059;2109;2122;2142;2393;2913;3212;3345;3062;2624;2403;2400;2743;3233;3622;3788;3676;3533;3278;3073;2957;3071;3191;3309;3283;3173;3130;3158;3209;3295;3353;3375;3319;3215;3114
Accel Y : 2199;2217;2213;2251;2183;2209;2208;2193;2210;2216;2221;2230;2215;2277;2281;2424;2545;2665;2760;2821;2906;2997;3040;3004;2882;2755;2649;2625;2638;2629;2650;2618;2563;2479;2446;2393;2383;2411;2386;2291;2071;1940;1757;1602;1831;1840;1662;1525;1519;1619;1704;1715;1636;1502;1414;1454;1530;1669;1731;1817;1838;1900;1916;1965;2030;2094;2118;2163;2256;2377;2458;2384;2301;2243;2293;2479;2723;2851;2879;2680;2479;2303;2334;2410;2515;2535;2501;2407;2350;2344;2391;2429;2352;2344;2291;2270;2307;2335;2314;2311
Accel Z : 1717;1712;1717;1721;1681;1675;1683;1661;1664;1598;1592;1418;1328;1200;1285;1290;1330;1402;1465;1367;1458;1452;1372;1504;1467;1578;1694;1759;1764;1726;1744;1679;1719;1586;1479;1477;1602;1685;1713;1710;1799;1941;1960;1860;1742;1791;1677;1659;1691;1798;1869;1934;1912;1900;1901;1904;1925;1938;1969;1931;1890;1739;1726;1736;1743;1748;1696;1716;1711;1764;1821;1597;1551;1438;1554;1795;1878;1821;1790;1594;1554;1533;1504;1668;1809;1801;1708;1645;1676;1684;1735;1678;1614;1596;1596;1650;1631;1646;1650;1656
Gyro X : 1751;1704;1651;1604;1574;1552;1533;1535;1550;1577;1625;1691;1747;1818;1895;1931;1947;1936;1928;1944;1945;1970;2028;2090;2132;2174;2173;2170;2203;2237;2278;2329;2379;2402;2401;2401;2355;2280;2212;2163;2181;2372;2709;2699;2223;1856;1793;1595;1262;1049;1128;1374;1628;1781;1819;1769;1621;1452;1344;1287;1301;1362;1417;1463;1544;1622;1505;1352;1314;1367;1611;1966;2233;2254;2083;1869;1661;1547;1570;1673;1797;1879;1906;1842;1766;1703;1688;1723;1786;1829;1841;1829;1812;1792;1783;1778;1798;1835;1875;1898
Gyro Y : 1706;1715;1726;1740;1760;1790;1829;1869;1902;1941;1972;1996;2010;2027;2034;2038;2045;2041;2037;2039;2035;2031;2023;2009;1999;1998;2005;2023;2016;1993;1994;1981;1956;1949;1948;1935;1912;1901;1898;1887;1857;1789;1642;1625;1657;1642;1571;1542;1578;1591;1572;1548;1512;1509;1542;1577;1604;1617;1598;1558;1510;1472;1462;1490;1494;1487;1505;1503;1458;1405;1372;1382;1451;1515;1557;1568;1539;1491;1450;1438;1452;1481;1503;1520;1532;1543;1554;1579;1605;1621;1631;1639;1646;1655;1656;1650;1651;1653;1657;1659
Gyro Z : 1730;1699;1658;1608;1553;1491;1422;1352;1281;1210;1142;1084;1027;976;937;900;866;837;809;791;775;771;782;795;798;800;798;791;795;783;795;801;802;798;800;805;803;826;868;940;1062;1263;1545;1835;2054;2192;2354;2469;2570;2659;2746;2813;2862;2907;2950;2989;3016;3038;3051;3052;3048;3047;3060;3068;3060;3054;3020;2980;2959;2923;2907;2901;2874;2820;2760;2717;2674;2629;2588;2548;2514;2477;2431;2375;2312;2246;2180;2128;2083;2039;1997;1959;1934;1911;1889;1866;1852;1839;1827;1813
COMMAND 1 SAMPLE 9
Accel X : 2846;2862;2848;2857;2843;2857;2860;2863;2953;3033;3192;3326;3363;3520;3713;3948;4068;4068;4068;4059;3933;3863;3719;3552;3294;3056;2835;2855;2803;2645;2425;2231;2134;2090;2022;1855;1682;1451;1235;867;474;16;18;18;20;21;23;23;24;483;1612;1863;1713;1415;968;680;710;879;1119;1346;1495;1595;1673;1810;1904;2064;2350;2643;2892;2930;2766;2529;2380;2660;3295;3799;3810;3390;2869;2776;2908;3232;3391;3412;3399;3361;3417;3361;3289;3327;3380;3463;3466;3396;3303;3219;3238;3318;3405;3357
Accel Y : 2251;2242;2244;2242;2226;2252;2238;2229;2229;2223;2189;2279;2261;2299;2370;2447;2519;2633;2731;2807;2843;2838;2813;2731;2646;2609;2549;2481;2430;2371;2432;2487;2541;2558;2564;2642;2701;2783;2857;2855;2842;2769;2632;2075;2396;2224;2101;1899;1679;1887;2190;2211;1971;1727;1569;1567;1725;1928;2048;2085;2103;2103;2132;2191;2258;2241;2320;2477;2556;2555;2544;2575;2666;2818;2882;2762;2525;2354;2373;2511;2658;2614;2449;2329;2324;2345;2409;2442;2453;2446;2435;2431;2434;2421;2409;2385;2372;2407;2410;2363
Accel Z : 1681;1702;1676;1715;1677;1696;1665;1636;1553;1425;1408;1377;1308;1248;1266;1205;1230;1273;1257;1286;1317;1447;1495;1421;1454;1585;1721;1742;1772;1688;1742;1690;1694;1643;1553;1460;1434;1330;1337;1339;1543;1780;2047;2215;979;1245;1963;1384;1162;1724;2058;1749;1653;1765;1745;1643;1665;1817;1853;1869;1872;1786;1703;1560;1401;1383;1525;1674;1786;1721;1695;1655;1574;1415;1222;1475;1522;1581;1701;1767;1884;1766;1624;1511;1472;1545;1736;1794;1761;1663;1635;1579;1558;1562;1535;1538;1625;1656;1588;1586
Gyro X : 1818;1822;1824;1821;1794;1758;1724;1696;1673;1684;1726;1790;1849;1883;1913;1972;2034;2068;2111;2147;2208;2281;2341;2390;2442;2505;2516;2470;2373;2264;2191;2117;2069;2023;1984;1933;1891;1869;1866;1911;2006;2051;2034;1987;1891;1759;1638;1538;1510;1555;1609;1623;1603;1547;1485;1449;1441;1452;1501;1585;1611;1586;1569;1516;1513;1628;1824;1970;1981;1924;1852;1774;1722;1716;1744;1799;1839;1836;1790;1718;1663;1682;1753;1838;1898;1908;1876;1834;1812;1818;1838;1851;1854;1842;1831;1810;1796;1777;1776;1790
Gyro Y : 1708;1723;1742;1759;1783;1807;1830;1851;1879;1903;1919;1943;1959;1981;1990;1991;1980;1968;1956;1929;1902;1878;1850;1818;1788;1749;1708;1686;1667;1671;1686;1708;1729;1750;1780;1818;1834;1837;1833;1802;1750;1712;1683;1659;1642;1631;1620;1613;1599;1584;1583;1591;1602;1623;1633;1625;1609;1590;1574;1573;1596;1638;1661;1644;1610;1588;1583;1603;1627;1648;1655;1635;1599;1567;1551;1555;1566;1580;1595;1603;1607;1608;1618;1629;1639;1645;1651;1652;1653;1656;1661;1666;1667;1665;1662;1662;1666;1667;1667;1668
Gyro Z : 1719;1668;1609;1542;1466;1388;1304;1212;1123;1038;955;877;801;729;662;607;567;527;501;487;474;466;461;461;480;511;555;606;665;736;821;908;1003;1097;1191;1291;1397;1515;1647;1790;1954;2109;2240;2351;2444;2519;2591;2663;2732;2794;2856;2911;2955;2992;3020;3041;3058;3071;3085;3102;3117;3109;3107;3103;3075;3030;2999;2959;2882;2807;2749;2689;2619;2554;2497;2452;2400;2352;2312;2265;2217;2173;2135;2105;2071;2036;2003;1975;1950;1925;1905;1888;1873;1859;1845;1831;1818;1803;1792;1786
COMMAND 1 SAMPLE 10
Accel X : 2939;2904;2920;2958;3055;3128;3191;3219;3238;3171;3193;3310;3552;3757;3962;3941;3889;3815;3744;3690;3693;3569;3399;3164;2998;2876;2823;2724;2655;2599;2486;2292;2067;1869;1688;1538;1275;822;202;15;17;20;20;23;30;25;1031;2184;2068;1943;1475;1102;826;739;718;728;841;1139;1399;1594;1728;1905;2162;2414;2665;3002;3277;3305;2893;2485;2362;2388;2870;3415;3679;3617;3283;2995;2872;2941;3117;3222;3263;3289;3272;3275;3262;3212;3185;3205;3260;3317;3365;3403;3378;3230;3129;3073;3100;3154
Accel Y : 2306;2271;2289;2287;2267;2255;2260;2303;2337;2305;2303;2318;2310;2386;2463;2536;2603;2650;2643;2589;2550;2479;2469;2445;2418;2364;2339;2422;2464;2504;2584;2640;2712;2845;2958;3016;3053;3007;2975;2982;2771;2950;2431;2073;1974;1967;2062;2367;2114;1778;1466;1352;1361;1501;1679;1777;1804;1840;1941;1975;2027;2044;2178;2334;2395;2452;2441;2453;2354;2336;2391;2630;2849;2951;2774;2515;2327;2333;2438;2554;2555;2453;2396;2343;2373;2361;2434;2400;2417;2421;2404;2387;2390;2375;2368;2387;2410;2405;2392;2386
Accel Z : 1621;1631;1620;1578;1541;1486;1451;1550;1523;1447;1325;1203;1232;1204;1251;1274;1318;1299;1333;1276;1292;1330;1317;1358;1466;1440;1576;1534;1575;1531;1604;1431;1340;1243;1248;1253;1294;1435;1819;2787;3845;2627;554;1751;2248;1642;2089;2171;1380;1788;1874;1932;1997;2137;2215;2193;2170;2151;2114;1827;1509;1393;1466;1582;1591;1671;1540;1493;1339;1244;1390;1554;1713;1738;1632;1536;1492;1511;1574;1649;1671;1663;1675;1638;1674;1676;1657;1655;1647;1646;1678;1624;1608;1622;1583;1623;1621;1612;1618;1638
Gyro X : 1794;1781;1781;1778;1786;1776;1736;1673;1624;1621;1668;1732;1774;1777;1772;1789;1857;1936;1970;1996;2025;2056;2159;2251;2393;2521;2586;2606;2589;2523;2466;2391;2305;2261;2264;2286;2418;2585;2348;1881;1728;1624;1393;1319;1492;1666;1751;1764;1728;1694;1672;1678;1680;1649;1614;1584;1596;1649;1696;1689;1638;1592;1562;1615;1778;1964;1939;1798;1607;1436;1420;1615;1868;2067;2124;2035;1871;1714;1608;1569;1622;1741;1881;1999;1991;1899;1785;1667;1643;1698;1794;1872;1906;1893;1852;1820;1803;1795;1778;1747
Gyro Y : 1671;1684;1691;1702;1720;1736;1754;1772;1799;1835;1867;1891;1923;1949;1984;2006;2029;2061;2079;2090;2082;2055;2029;2010;1991;1962;1911;1857;1812;1765;1725;1690;1688;1694;1695;1694;1687;1634;1683;1686;1633;1594;1656;1698;1701;1684;1667;1676;1701;1717;1718;1716;1702;1693;1674;1650;1640;1642;1653;1680;1735;1753;1723;1685;1644;1641;1666;1707;1744;1746;1708;1648;1611;1618;1638;1658;1669;1667;1661;1655;1639;1620;1617;1639;1649;1658;1655;1647;1629;1627;1630;1637;1644;1643;1649;1644;1645;1645;1645;1648
Gyro Z : 1778;1762;1742;1715;1683;1637;1582;1515;1438;1359;1277;1189;1095;998;901;814;740;669;595;521;473;433;408;386;366;356;347;344;354;371;395;439;499;579;687;852;1108;1425;1741;2019;2183;2341;2481;2576;2623;2651;2673;2703;2731;2761;2777;2799;2807;2808;2805;2802;2808;2810;2804;2790;2775;2762;2743;2729;2717;2706;2660;2615;2579;2555;2523;2495;2471;2446;2409;2374;2342;2310;2286;2268;2248;2231;2222;2213;2189;2163;2137;2102;2075;2053;2035;2016;1995;1971;1951;1929;1911;1896;1880;1873
COMMAND 1 SAMPLE 11
Accel X : 2915;2963;3036;3095;3185;3171;3202;3237;3413;3595;3813;3912;3907;3904;3908;3995;4002;3942;3858;3782;3530;3255;3075;2895;2776;2578;2302;2014;1626;1375;1148;918;690;435;20;16;18;19;19;21;23;22;24;593;1266;1484;1455;1311;1274;1318;1428;1559;1658;1728;1772;1874;2080;2262;2396;2549;2613;2547;2540;2798;3075;3125;2869;2586;2512;2697;3194;3618;3713;3501;3091;2802;2748;2864;2971;3045;3205;3385;3386;3303;3093;2919;2912;3012;3173;3296;3288;3226;3111;3018;2965;3028;3059;3033;2943;2900
Accel Y : 2298;2297;2302;2278;2299;2301;2300;2315;2331;2383;2435;2526;2565;2606;2644;2723;2715;2728;2764;2846;2856;2746;2621;2550;2588;2692;2794;2851;2952;2976;3005;2924;2813;2687;2554;2329;2123;1850;2091;2025;1883;1702;1660;1855;2002;1986;1823;1649;1607;1655;1722;1748;1785;1782;1849;1867;1869;1875;1865;1827;1858;2047;2199;2329;2335;2242;2152;2127;2160;2300;2411;2412;2279;2130;2022;2038;2107;2161;2169;2190;2220;2224;2148;2116;2137;2200;2289;2289;2283;2241;2235;2235;2225;2271;2253;2284;2309;2263;2245;2252
Accel Z : 1622;1641;1663;1623;1597;1563;1520;1454;1343;1279;1321;1358;1350;1256;1278;1274;1186;1132;1162;1341;1550;1590;1637;1604;1690;1772;1693;1636;1615;1652;1493;1440;1454;1529;1617;1815;2089;2078;1495;1632;1805;1581;1646;1777;1827;1823;1810;1812;1789;1780;1791;1839;1877;1869;1864;1806;1786;1743;1553;1413;1491;1755;1873;1983;1916;1771;1560;1474;1508;1686;1858;1917;1900;1804;1781;1810;1782;1851;1869;1919;1853;1854;1869;1871;1899;1890;1954;1916;1915;1891;1850;1851;1851;1870;1884;1902;1879;1835;1825;1786
Gyro X : 1820;1811;1764;1712;1660;1619;1584;1552;1540;1511;1489;1470;1438;1439;1471;1549;1655;1781;1906;1999;2037;2042;2062;2103;2167;2242;2319;2367;2388;2391;2354;2310;2259;2214;2210;2255;2256;2254;2273;2328;2390;2435;2514;2552;2503;2309;2051;1885;1671;1431;1268;1200;1188;1209;1258;1329;1394;1437;1477;1531;1598;1659;1707;1731;1711;1663;1601;1569;1573;1571;1510;1391;1243;1112;1097;1306;1866;2512;2960;3113;2890;2323;1761;1394;1231;1236;1340;1448;1594;1787;1948;2051;2051;1989;1895;1807;1723;1696;1726;1785
Gyro Y : 1678;1684;1693;1710;1728;1746;1769;1791;1822;1851;1881;1917;1951;1982;2014;2040;2061;2073;2075;2075;2064;2048;2036;2014;1993;1961;1927;1891;1851;1808;1775;1744;1714;1691;1665;1632;1601;1558;1529;1515;1496;1493;1491;1511;1554;1613;1718;1814;1890;1933;1949;1948;1941;1927;1914;1893;1875;1858;1842;1825;1810;1801;1796;1792;1786;1785;1771;1749;1729;1717;1708;1694;1653;1572;1467;1357;1216;1136;1173;1268;1386;1590;1698;1665;1635;1653;1683;1684;1685;1686;1687;1684;1680;1679;1668;1652;1653;1656;1645;1640
Gyro Z : 1813;1793;1765;1729;1687;1631;1565;1496;1418;1334;1242;1148;1056;969;891;820;764;723;682;646;616;594;582;578;582;584;587;592;590;588;582;582;583;589;612;651;694;741;801;876;949;1059;1225;1446;1700;1957;2186;2394;2549;2669;2759;2828;2881;2925;2969;3000;3022;3043;3054;3057;3055;3057;3058;3065;3075;3086;3103;3131;3156;3172;3181;3179;3174;3187;3192;3151;3023;2815;2618;2463;2320;2206;2073;1963;1879;1816;1804;1793;1788;1788;1789;1790;1791;1791;1785;1784;1791;1801;1806;1814
COMMAND 1 SAMPLE 12
Accel X : 3010;3117;3230;3282;3335;3453;3603;3802;3984;4067;4066;4068;4031;3963;3812;3563;3348;3190;3033;2871;2690;2515;2369;2230;2125;2059;1984;1917;1742;1386;955;431;20;18;17;198;779;608;19;20;22;22;23;23;99;347;597;692;757;867;1044;1266;1429;1638;1736;1811;1878;1888;1898;1926;1980;2010;2018;2030;2050;2122;2212;2326;2490;2669;2823;3000;3397;3954;4077;4074;4074;4073;3774;3246;2728;2566;2710;3172;3635;3893;3951;3886;3670;3396;3089;2891;2797;2768;2798;2813;2863;2961;3011;2979
Accel Y : 2192;2172;2136;2136;2127;2137;2196;2269;2379;2528;2663;2782;2924;2902;2860;2781;2696;2618;2475;2400;2349;2308;2267;2231;2254;2235;2287;2366;2442;2473;2510;2466;2322;2139;2208;2427;2435;2372;2177;1959;1911;2003;1975;2018;2083;2075;2054;1978;1948;1987;2027;2048;2021;1997;1961;1879;1885;1856;1898;1928;1978;2079;2217;2324;2367;2435;2535;2680;2835;3007;3223;3493;3633;3539;3244;3050;2922;2747;2425;2067;1923;2150;2353;2271;2147;2134;2227;2311;2285;2260;2263;2270;2279;2284;2289;2233;2207;2238;2264;2255
Accel Z : 1832;1788;1817;1766;1691;1649;1642;1638;1600;1548;1533;1496;1490;1464;1527;1590;1631;1670;1690;1745;1805;1801;1814;1802;1805;1816;1843;1837;1832;1803;1707;1445;1515;1650;1426;1640;1889;1890;1554;1063;904;1038;1158;1286;1403;1442;1492;1480;1475;1459;1521;1557;1630;1773;1830;1871;1918;1934;1977;2022;2068;2040;1964;1890;1899;1966;2012;2083;2131;2045;1928;1603;1409;1493;1778;1877;1816;1478;1098;1020;1394;1890;2033;2089;2040;1959;1937;1937;1959;1947;1921;1940;1966;2005;2021;2026;2042;2061;2060;2017
Gyro X : 1352;1369;1428;1537;1685;1814;1929;2018;2063;2094;2132;2162;2183;2191;2204;2231;2274;2357;2470;2577;2660;2735;2733;2595;2462;2401;2504;2659;2826;2860;2695;2395;2149;2097;1941;1699;1489;1354;1292;1271;1271;1294;1328;1384;1438;1471;1490;1517;1554;1592;1603;1563;1479;1348;1203;1123;1099;1165;1257;1281;1198;1073;945;909;1033;1390;1847;2341;2659;2830;2786;2534;2145;1754;1461;1381;1460;1601;1777;1923;2066;2179;2245;2236;2143;2012;1886;1784;1717;1702;1733;1785;1840;1876;1897;1904;1899;1887;1861;1836
Gyro Y : 1999;2039;2079;2116;2143;2165;2181;2184;2183;2184;2175;2161;2148;2131;2112;2093;2071;2040;1995;1940;1873;1797;1708;1613;1576;1524;1473;1445;1419;1428;1452;1551;1677;1786;1867;1919;1955;1971;1975;1977;1974;1969;1959;1945;1929;1906;1889;1872;1855;1849;1841;1830;1822;1799;1780;1750;1700;1649;1612;1584;1556;1517;1467;1393;1307;1234;1183;1154;1160;1205;1301;1429;1553;1604;1621;1636;1676;1705;1719;1717;1711;1706;1699;1688;1681;1667;1656;1649;1644;1641;1639;1640;1644;1647;1648;1652;1650;1652;1649;1648
Gyro Z : 1063;982;908;848;798;745;695;658;632;615;608;601;596;585;585;588;588;592;596;602;607;636;674;680;721;778;858;974;1135;1353;1602;1797;1992;2194;2349;2477;2581;2664;2733;2790;2841;2877;2894;2913;2925;2925;2922;2922;2919;2922;2915;2903;2902;2897;2895;2919;2943;2972;2987;2971;2945;2919;2905;2910;2900;2869;2817;2735;2630;2531;2438;2362;2245;2101;1963;1871;1819;1794;1777;1771;1772;1778;1792;1803;1815;1826;1834;1840;1844;1847;1849;1846;1842;1838;1836;1835;1833;1833;1831;1826
COMMAND 1 SAMPLE 13
Accel X : 3254;3393;3435;3481;3499;3599;3675;3738;3788;3865;3966;4023;3997;3901;3795;3693;3488;3269;2993;2824;2697;2544;2398;2214;1956;1629;1268;960;781;689;629;560;514;467;437;403;381;287;189;70;24;22;26;112;125;179;288;462;674;821;900;995;1094;1246;1414;1594;1792;1942;2131;2304;2460;2600;2542;2563;2836;3213;3405;3337;3138;3063;3105;3163;3254;3309;3405;3458;3455;3353;3250;3280;3408;3513;3567;3540;3458;3368;3251;3244;3266;3298;3282;3222;3135;3109;3058;3040;3023;2989;3014;3001
Accel Y : 2247;2251;2269;2302;2311;2327;2348;2381;2423;2471;2523;2523;2540;2584;2616;2637;2585;2502;2493;2485;2473;2494;2595;2615;2635;2669;2684;2660;2580;2488;2385;2283;2177;2074;1921;1855;1822;1847;1852;1930;1893;1771;1707;1691;1655;1641;1631;1675;1655;1665;1659;1650;1691;1785;1903;2046;2153;2269;2366;2423;2499;2627;2807;3028;3138;3300;3282;3097;2946;2863;2865;2843;2811;2667;2563;2431;2398;2395;2395;2451;2470;2451;2427;2421;2405;2410;2395;2387;2417;2384;2422;2420;2452;2453;2452;2431;2417;2402;2428;2426
Accel Z : 1566;1553;1545;1430;1396;1417;1380;1359;1374;1453;1430;1390;1378;1339;1397;1515;1506;1500;1629;1710;1739;1722;1646;1554;1566;1553;1493;1446;1355;1337;1342;1364;1390;1382;1512;1623;1742;1879;2041;2237;2260;2263;2260;2167;2065;2017;1941;1896;1885;1885;1851;1800;1747;1724;1750;1756;1774;1713;1619;1446;1277;1261;1509;1621;1495;1399;1393;1299;1308;1463;1651;1782;1730;1624;1616;1672;1763;1779;1809;1787;1856;1788;1744;1742;1741;1711;1787;1819;1816;1813;1763;1756;1714;1747;1751;1763;1729;1766;1735;1723
Gyro X : 1848;1851;1857;1861;1863;1866;1862;1857;1835;1781;1697;1637;1592;1573;1550;1537;1548;1567;1603;1622;1627;1641;1690;1743;1815;1868;1913;1973;2052;2182;2325;2442;2544;2611;2627;2617;2588;2541;2485;2427;2380;2339;2319;2306;2207;2222;2205;2236;2360;2523;2719;2698;2504;2199;1803;1523;1354;1226;1098;1006;989;1077;1236;1426;1587;1712;1804;1861;1889;1890;1871;1848;1822;1797;1760;1710;1644;1574;1508;1456;1419;1403;1393;1369;1303;1211;1122;1063;1073;1244;1574;2027;2402;2631;2676;2529;2261;2008;1823;1709
Gyro Y : 1668;1667;1667;1668;1668;1669;1671;1673;1679;1688;1701;1712;1730;1756;1780;1808;1846;1871;1896;1922;1956;1980;2000;2014;2017;2028;2025;2024;2015;1998;1978;1945;1908;1871;1819;1768;1719;1671;1627;1597;1555;1526;1480;1430;1359;1358;1319;1293;1291;1313;1393;1527;1711;1848;1928;1975;2016;2017;1994;1965;1932;1900;1866;1844;1830;1826;1828;1837;1847;1860;1872;1874;1875;1874;1872;1870;1862;1856;1853;1851;1844;1827;1802;1769;1732;1687;1630;1562;1478;1392;1313;1244;1210;1224;1296;1398;1516;1586;1616;1651
Gyro Z : 1838;1837;1837;1839;1839;1840;1839;1831;1818;1799;1765;1724;1677;1620;1558;1490;1415;1331;1247;1165;1083;1004;923;844;767;706;661;625;601;586;578;576;578;586;588;587;584;583;582;589;597;614;645;687;719;793;863;937;1039;1213;1452;1748;2032;2249;2376;2494;2577;2612;2627;2647;2663;2683;2701;2710;2715;2717;2719;2719;2719;2719;2723;2724;2731;2739;2743;2752;2756;2765;2779;2792;2814;2837;2856;2862;2854;2845;2853;2869;2880;2865;2796;2695;2577;2477;2392;2310;2209;2092;1983;1901
COMMAND 1 SAMPLE 14
Accel X : 2643;2555;2441;2284;2146;1998;1835;1707;1697;1680;1706;1732;1771;1783;1748;1752;1704;1643;1559;1443;1380;1334;1279;1194;1023;759;242;21;20;651;1266;1072;423;315;702;1233;1595;1711;1703;1689;1624;1491;1378;1219;1033;925;901;909;902;844;833;877;969;1072;1153;1212;1296;1356;1469;1570;1647;1716;1713;1753;1803;1840;1862;1948;2008;2133;2210;2311;2343;2354;2329;2282;2257;2294;2298;2342;2421;2584;2882;3364;4067;4076;4074;3387;2005;1918;2904;4070;3563;3044;3081;3394;3601;3289;2830;2771
Accel Y : 2037;2009;2011;1984;1955;1900;1858;1813;1788;1755;1782;1798;1814;1834;1851;1855;1824;1813;1808;1772;1672;1623;1549;1562;1464;1340;1248;1139;1282;1753;1704;1318;1244;1436;1527;1453;1348;1266;1281;1227;1235;1222;1215;1200;1218;1212;1235;1233;1239;1257;1287;1347;1387;1435;1458;1489;1528;1573;1609;1657;1664;1684;1707;1700;1731;1763;1819;1823;1873;1909;2007;2064;2153;2216;2323;2451;2610;2823;3089;3389;3695;3985;4078;4078;4082;3527;2339;1110;1942;3353;2965;2360;2345;2539;2495;2495;2421;2513;2588;2567
Accel Z : 2050;2015;1961;1937;1904;1859;1835;1782;1770;1821;1793;1811;1782;1748;1775;1850;1883;1893;1899;1864;1875;1857;1838;1774;1782;1773;1943;1861;1485;1463;1954;2107;2000;2014;2238;2283;2268;2213;2103;2130;2145;2125;2074;2072;2004;1918;1907;1881;1832;1820;1778;1771;1836;1841;1848;1845;1879;1894;1932;1908;1958;1937;1888;1869;1845;1814;1790;1693;1693;1732;1764;1823;1921;2001;1955;1921;1911;1919;1887;1826;1843;1921;2031;2315;2424;1597;24;1174;2939;2523;2330;2683;2017;1729;1435;1603;1950;1969;1985;1759
Gyro X : 1748;1682;1595;1537;1546;1615;1733;1885;2020;2130;2199;2275;2341;2396;2427;2429;2425;2394;2346;2279;2236;2205;2186;2181;2174;2187;2189;2142;2161;2255;2389;2555;2635;2621;2602;2503;2097;1623;1356;1273;1255;1211;1179;1185;1224;1333;1457;1561;1636;1706;1755;1779;1788;1791;1777;1752;1708;1654;1622;1592;1553;1479;1360;1200;1055;1000;1072;1283;1573;1829;2004;2093;2128;2150;2203;2226;2207;2079;1858;1597;1459;1447;1523;1629;1731;1813;1869;1911;1921;1905;1872;1837;1804;1783;1783;1799;1820;1841;1855;1861
Gyro Y : 1831;1844;1861;1874;1892;1905;1913;1915;1907;1894;1883;1859;1836;1812;1784;1754;1724;1696;1674;1655;1646;1630;1611;1588;1570;1540;1507;1461;1446;1414;1368;1332;1353;1440;1589;1763;1887;1962;2013;2040;2031;2016;1996;1968;1939;1907;1886;1873;1862;1856;1856;1860;1862;1861;1865;1859;1855;1851;1849;1844;1833;1829;1812;1778;1733;1664;1584;1523;1488;1479;1492;1521;1540;1550;1535;1512;1494;1492;1514;1554;1568;1583;1612;1645;1675;1691;1700;1702;1695;1690;1682;1674;1668;1660;1657;1653;1650;1649;1652;1653
Gyro Z : 1178;1105;1038;975;924;876;824;787;754;728;711;703;698;695;692;687;688;691;692;691;691;690;685;690;700;723;756;785;839;907;990;1116;1278;1478;1762;2047;2252;2383;2505;2600;2649;2677;2706;2728;2738;2747;2751;2755;2752;2753;2756;2757;2763;2762;2762;2762;2762;2768;2780;2789;2796;2796;2789;2783;2780;2798;2808;2817;2818;2803;2791;2774;2742;2700;2628;2535;2444;2365;2300;2236;2150;2061;1981;1916;1873;1838;1812;1802;1799;1801;1802;1804;1810;1815;1825;1829;1831;1832;1834;1828
COMMAND 1 SAMPLE 15
Accel X : 2981;3019;3088;3163;3233;3317;3410;3511;3603;3696;3731;3729;3689;3631;3538;3310;3183;3132;3101;3013;2863;2681;2513;2421;2379;2332;2291;2239;2175;2027;1918;1867;1810;1772;1670;1556;1329;1077;765;344;18;18;20;19;21;40;27;24;24;93;844;1293;1416;1343;1227;1130;1101;1270;1552;1803;1966;2031;2105;2321;2605;2765;2690;2649;2811;3207;3675;3783;3477;2989;2744;2723;2919;3173;3428;3551;3553;3434;3325;3253;3289;3433;3555;3570;3534;3451;3366;3326;3283;3319;3309;3296;3257;3243;3213;3132
Accel Y : 2191;2232;2245;2245;2216;2213;2243;2286;2318;2361;2437;2519;2479;2457;2427;2361;2342;2319;2239;2165;2110;2035;1979;1901;1858;1865;1913;2035;2114;2087;2079;2116;2120;2180;2227;2331;2395;2425;2389;2362;2332;2252;2072;2078;2055;1979;1862;1803;1837;2013;2179;2236;2151;2011;1904;1912;1990;2128;2217;2274;2255;2264;2239;2279;2398;2455;2511;2647;2864;2956;2906;2773;2539;2463;2538;2709;2823;2820;2687;2588;2520;2511;2576;2577;2599;2580;2518;2479;2446;2471;2458;2449;2436;2415;2464;2462;2464;2460;2487;2482
Accel Z : 1601;1611;1548;1507;1435;1357;1258;1287;1264;1297;1324;1378;1318;1336;1387;1347;1404;1412;1432;1438;1455;1611;1722;1735;1673;1625;1538;1592;1647;1645;1707;1713;1635;1613;1574;1619;1615;1668;1809;2002;2284;2453;2477;1956;1637;1919;1954;1648;1591;1665;1770;1806;1829;1801;1766;1727;1712;1762;1793;1791;1755;1665;1595;1602;1612;1439;1409;1540;1474;1350;1323;1329;1181;1224;1468;1607;1725;1656;1502;1400;1426;1508;1555;1609;1617;1634;1565;1570;1563;1614;1616;1633;1632;1710;1683;1698;1635;1626;1632;1650
Gyro X : 1807;1775;1726;1678;1650;1610;1580;1511;1414;1295;1233;1241;1351;1533;1720;1880;1998;2084;2141;2196;2252;2305;2340;2348;2361;2365;2403;2439;2510;2511;2457;2390;2319;2247;2239;2219;2242;2286;2377;2620;2685;2241;1878;1782;1346;960;994;1319;1614;1796;1865;1842;1708;1490;1317;1277;1322;1482;1610;1540;1351;1212;1209;1305;1523;1759;1972;2092;2059;1890;1531;1291;1318;1493;1755;1951;2012;1943;1832;1679;1552;1458;1403;1405;1457;1537;1663;1795;1897;1926;1887;1839;1821;1837;1872;1880;1861;1829;1796;1768
Gyro Y : 1661;1665;1675;1685;1700;1729;1757;1790;1840;1887;1929;1988;2047;2095;2119;2123;2117;2109;2100;2087;2073;2049;2015;1977;1951;1927;1899;1869;1844;1815;1807;1780;1779;1787;1795;1800;1802;1791;1776;1698;1697;1772;1688;1610;1630;1725;1721;1647;1610;1613;1630;1671;1707;1721;1720;1689;1661;1625;1607;1651;1703;1698;1642;1591;1545;1521;1570;1622;1664;1692;1706;1648;1543;1454;1436;1463;1487;1493;1477;1459;1452;1446;1453;1472;1496;1526;1566;1593;1622;1649;1660;1662;1664;1663;1666;1662;1657;1654;1650;1650
Gyro Z : 1826;1809;1788;1756;1717;1665;1596;1502;1393;1274;1160;1062;972;898;832;765;714;673;639;618;599;592;581;571;567;564;564;571;568;583;590;598;610;627;656;687;747;837;972;1211;1436;1811;2080;2223;2280;2354;2432;2462;2491;2524;2560;2610;2668;2722;2789;2851;2900;2940;2962;2977;2987;2993;3006;3026;3039;3047;3057;3053;3053;3041;3005;2963;2936;2904;2863;2807;2748;2675;2604;2535;2475;2412;2345;2278;2218;2164;2113;2053;2001;1953;1911;1882;1865;1855;1848;1838;1826;1815;1805;1797
COMMAND 1 SAMPLE 16
Accel X : 3255;3329;3339;3408;3498;3541;3547;3514;3510;3551;3566;3587;3511;3428;3354;3211;3135;3024;2964;2851;2695;2547;2376;2256;2125;2048;1984;1881;1771;1699;1628;1538;1410;1130;721;255;22;19;18;18;22;21;22;21;23;30;231;340;378;466;636;858;1124;1332;1480;1593;1710;1758;1807;1839;1821;1803;1833;1866;1922;2077;2352;2607;2810;2898;2873;2785;2691;2724;3008;3693;4078;4071;4074;3250;2687;2643;3255;3739;3781;3604;3639;3774;3721;3436;3111;2901;2708;2679;2688;2740;2821;2906;2934;3007
Accel Y : 2220;2239;2253;2226;2259;2302;2300;2370;2381;2445;2444;2479;2439;2413;2391;2356;2310;2271;2198;2167;2151;2108;2075;2097;2135;2164;2203;2238;2258;2329;2336;2377;2413;2395;2325;2220;2016;2137;2215;2367;2296;1998;1898;1979;1987;2021;2033;1974;1928;1882;1893;1915;1922;1938;1930;1951;1935;1913;1904;1898;1886;1960;2096;2203;2276;2351;2491;2541;2587;2611;2708;2897;3102;3398;3672;3762;3603;3208;2810;2564;2210;1930;2101;2215;2107;2075;2164;2279;2276;2288;2294;2281;2248;2218;2226;2176;2171;2148;2186;2205
Accel Z : 1827;1850;1781;1749;1729;1700;1699;1646;1594;1622;1603;1628;1619;1668;1668;1699;1727;1705;1756;1796;1899;1945;1972;2026;1997;1932;1865;1778;1686;1662;1698;1730;1755;1741;1653;1807;1545;1255;1304;1486;1761;1829;1595;1620;1630;1509;1475;1358;1235;1216;1324;1509;1701;1868;1883;2002;2062;2055;2036;1996;1970;1927;1861;1819;1784;1785;1908;2097;2255;2325;2275;2153;2113;2028;1930;1934;2322;2225;1876;1294;952;1298;1822;2045;2068;2008;1922;1925;1950;1974;1964;1987;2015;2004;1978;1986;1997;2002;2024;2026
Gyro X : 1508;1493;1524;1628;1759;1862;1915;1936;1915;1865;1799;1759;1770;1853;1945;2010;2056;2088;2119;2145;2163;2176;2205;2223;2271;2326;2387;2435;2440;2412;2381;2350;2336;2320;2213;2109;2054;2055;2075;2099;2049;2010;2019;2041;2018;1885;1707;1540;1441;1412;1425;1452;1445;1444;1486;1494;1474;1457;1417;1257;928;796;1188;1813;2226;2236;2039;1822;1746;1921;2047;2055;2027;1993;1903;1793;1671;1530;1446;1414;1393;1429;1510;1613;1732;1856;1949;1985;1982;1966;1931;1901;1888;1882;1878;1878;1883;1885;1881;1880
Gyro Y : 1665;1679;1699;1725;1745;1760;1767;1784;1808;1820;1827;1837;1840;1830;1822;1824;1829;1809;1783;1778;1776;1773;1753;1732;1726;1711;1694;1675;1648;1609;1584;1554;1525;1529;1563;1582;1587;1592;1591;1611;1616;1623;1642;1669;1717;1768;1809;1830;1839;1850;1848;1846;1834;1819;1798;1781;1781;1759;1749;1774;1855;1916;1794;1437;1420;1549;1714;1795;1762;1718;1683;1671;1633;1551;1471;1497;1571;1616;1610;1583;1566;1589;1632;1670;1680;1668;1647;1643;1656;1669;1677;1685;1686;1680;1678;1678;1678;1680;1681;1681
Gyro Z : 1590;1543;1498;1453;1401;1342;1279;1217;1154;1091;1030;977;935;898;862;825;789;758;731;710;694;684;682;679;679;680;687;692;706;720;745;775;804;853;937;1030;1136;1260;1402;1545;1713;1901;2090;2274;2449;2604;2742;2851;2946;3019;3077;3120;3148;3168;3163;3162;3160;3166;3175;3183;3180;3178;3186;3136;3113;3068;3021;2959;2883;2810;2723;2622;2514;2395;2271;2166;2071;1978;1894;1824;1774;1747;1736;1734;1737;1741;1738;1743;1747;1751;1757;1761;1764;1764;1764;1766;1767;1768;1763;1759
COMMAND 1 SAMPLE 17
Accel X : 2898;2977;3041;3169;3244;3220;3269;3359;3462;3510;3581;3690;3799;3898;3975;3951;3889;3821;3693;3576;3413;3387;3261;3091;2901;2714;2461;2314;2160;2078;1985;1849;1655;1469;1326;1253;1162;1018;765;169;17;17;20;20;22;23;24;25;453;856;1026;1052;1087;1136;1221;1336;1412;1437;1378;1320;1285;1350;1456;1573;1647;1783;1942;2060;2147;2164;2206;2231;2295;2356;2511;2607;2703;2936;3523;4079;4079;4075;2989;1593;2074;3681;4071;4073;3992;3669;3159;2747;2563;2759;3156;3328;3279;3194;3067;2961
Accel Y : 2327;2335;2330;2320;2315;2351;2356;2364;2395;2486;2522;2600;2643;2748;2825;2859;2919;2994;2980;2911;2818;2717;2677;2630;2576;2529;2465;2448;2451;2467;2588;2674;2714;2754;2769;2760;2764;2736;2678;2503;2199;1178;1649;3570;2355;1395;2143;2131;2008;1813;1737;1779;1796;1791;1740;1759;1813;1851;1866;1854;1864;1901;1958;2062;2138;2237;2351;2466;2550;2735;2881;3143;3391;3729;4035;4071;4077;4077;4079;4083;3388;1611;343;1590;3051;3260;2580;2301;2650;2758;2636;2560;2531;2630;2570;2348;2313;2371;2420;2453
Accel Z : 2020;1987;1895;1883;1903;1911;1830;1814;1764;1733;1633;1566;1516;1503;1533;1545;1551;1618;1676;1805;1831;1857;1947;1949;1992;1990;1958;1909;1838;1782;1773;1752;1675;1602;1471;1361;1287;1281;1304;1261;1120;18;22;672;1156;587;2149;1833;1663;1609;1496;1474;1543;1694;1792;1931;2035;2032;1979;1899;1872;1858;1872;1884;1780;1784;1758;1713;1635;1598;1536;1531;1511;1515;1489;1403;1296;1165;1370;2531;461;21;1321;2960;2338;1759;1718;1361;1478;2180;2438;2399;2032;1852;1939;1980;1799;1782;1773;1761
Gyro X : 1787;1774;1755;1718;1637;1535;1427;1350;1335;1386;1483;1596;1720;1854;1967;2042;2076;2098;2110;2128;2152;2174;2202;2218;2252;2294;2335;2381;2446;2513;2560;2576;2468;2420;2231;2110;2185;2530;2799;2596;2150;1817;1770;1760;1683;1601;1546;1531;1515;1485;1460;1452;1457;1486;1530;1571;1613;1674;1723;1775;1838;1837;1748;1609;1435;1249;1079;945;821;720;638;585;613;886;1402;2062;2611;3028;3183;3066;2666;2159;1672;1337;1240;1323;1480;1667;1841;1988;2060;2049;1996;1917;1847;1791;1751;1743;1774;1815
Gyro Y : 1675;1683;1697;1715;1736;1758;1785;1811;1841;1873;1902;1928;1952;1956;1960;1958;1947;1939;1925;1918;1905;1889;1874;1858;1844;1822;1803;1777;1740;1684;1628;1557;1464;1455;1389;1364;1408;1464;1510;1560;1627;1727;1818;1891;1949;1994;2016;2025;2026;2027;2019;2012;1999;1991;1988;1978;1967;1959;1950;1944;1949;1959;1966;1961;1942;1928;1896;1848;1779;1688;1586;1472;1349;1234;1157;1138;1176;1239;1334;1444;1575;1659;1659;1646;1666;1688;1707;1708;1705;1700;1697;1694;1686;1676;1669;1661;1661;1663;1659;1655
Gyro Z : 1770;1734;1688;1623;1546;1458;1361;1258;1158;1062;975;888;820;757;702;662;632;615;601;586;581;581;583;587;598;605;605;602;613;627;657;700;728;801;849;900;1005;1191;1434;1654;1845;2012;2183;2329;2450;2547;2617;2671;2707;2739;2770;2798;2810;2818;2826;2836;2842;2853;2862;2872;2888;2882;2874;2869;2867;2872;2885;2911;2934;2935;2929;2924;2938;2933;2877;2787;2691;2613;2505;2386;2255;2131;2003;1907;1834;1797;1782;1777;1775;1777;1778;1782;1789;1791;1798;1808;1817;1824;1827;1827
COMMAND 1 SAMPLE 18
Accel X : 2459;2218;1985;1771;1684;1691;1623;1557;1385;1235;1133;1037;907;406;16;19;18;20;915;23;26;24;106;356;774;1057;1170;1201;1359;1580;1833;1927;1785;1600;1478;1444;1502;1700;1910;2044;2101;2167;2260;2315;2419;2446;2578;2701;3052;4079;4078;4078;3215;1450;2220;3767;4070;4071;3495;2389;1684;1571;2218;3028;3266;3283;3495;3582;3431;3185;2976;2793;2656;2642;2703;2784;2881;2926;2911;2919;2941;2869;2850;2846;2819;2771;2744;2721;2726;2740;2765;2725;2787;2801;2838;2828;2823;2784;2779;2778
Accel Y : 2742;2629;2577;2519;2483;2529;2597;2697;2759;2728;2633;2516;2417;2356;2223;1283;457;3202;3005;1417;1508;1824;1861;1577;1482;1507;1639;1783;1884;1875;1800;1732;1690;1723;1830;1922;2062;2255;2485;2660;2835;3009;3197;3433;3813;4073;4075;4076;4079;4078;4083;1934;28;971;3091;3315;2474;2010;2440;2691;2664;2491;2499;2522;2417;2355;2321;2326;2422;2489;2443;2448;2420;2438;2452;2435;2437;2479;2486;2491;2498;2472;2462;2462;2461;2511;2459;2414;2407;2394;2401;2397;2413;2399;2424;2422;2405;2404;2410;2386
Accel Z : 2078;2076;1994;1855;1806;1730;1627;1521;1420;1249;1193;1258;1353;1301;871;18;16;1286;2349;1400;1796;1688;1340;1083;924;1212;1457;1495;1613;1838;2078;2140;2035;1927;1842;1835;1815;1843;1809;1745;1660;1605;1548;1601;1580;1540;1508;1414;1380;1947;1069;21;1471;2426;2439;1109;1052;1313;1453;2199;2538;2380;2216;2279;1931;1748;1755;1781;1880;1916;1972;2054;2109;2084;2088;2078;2056;2055;2015;1967;1968;1963;1957;1944;1953;1915;1937;1945;1988;1988;2017;2015;1982;1971;1988;1979;1993;1996;1970;1976
Gyro X : 1394;1408;1488;1597;1702;1801;1893;1974;2029;2041;2023;2005;1999;2003;2034;2094;2144;2201;2253;2284;2311;2323;2322;2318;2316;2342;2404;2477;2396;2434;2269;2137;2098;2340;2638;2628;2207;1822;1704;1686;1617;1495;1390;1328;1295;1294;1272;1284;1297;1354;1437;1538;1642;1731;1782;1775;1696;1541;1328;1097;906;801;806;890;990;1145;1361;1603;1820;2005;2259;2484;2604;2556;2338;2002;1696;1535;1492;1523;1588;1690;1817;1936;2012;2049;2057;2021;1963;1907;1856;1827;1827;1833;1849;1868;1881;1893;1912;1915
Gyro Y : 1821;1841;1869;1893;1910;1919;1926;1925;1914;1907;1900;1888;1887;1889;1891;1889;1883;1872;1858;1842;1822;1801;1776;1758;1733;1699;1655;1597;1501;1506;1455;1411;1445;1511;1583;1653;1745;1834;1900;1954;1991;2021;2035;2040;2047;2033;2002;1983;1937;1898;1866;1844;1835;1833;1842;1861;1873;1873;1871;1855;1808;1724;1621;1519;1421;1336;1265;1212;1195;1208;1217;1244;1303;1378;1474;1569;1615;1616;1635;1658;1680;1691;1694;1697;1701;1698;1688;1683;1675;1668;1664;1658;1652;1648;1645;1648;1648;1648;1649;1648
Gyro Z : 1142;1065;994;926;864;822;779;747;720;695;682;674;672;674;676;683;691;699;704;704;701;700;699;702;711;729;759;807;836;923;1003;1084;1186;1402;1679;1949;2133;2314;2474;2598;2696;2774;2825;2863;2886;2896;2881;2886;2887;2897;2906;2918;2933;2942;2945;2943;2930;2921;2904;2893;2907;2927;2949;2959;2962;2965;2941;2889;2840;2783;2697;2593;2471;2354;2256;2155;2052;1956;1888;1842;1815;1796;1779;1771;1764;1763;1765;1773;1778;1789;1799;1808;1819;1824;1830;1836;1843;1847;1849;1851
COMMAND 1 SAMPLE 19
Accel X : 3167;3363;3492;3689;3733;3620;3463;3294;3238;3302;3359;3413;3448;3471;3440;3405;3264;3145;2987;2872;2781;2709;2597;2442;2297;2142;1993;1869;1734;1621;1514;1400;1247;915;117;15;18;18;20;23;24;27;152;721;819;722;749;919;1067;1250;1499;1810;2021;2156;2188;2038;1858;1789;1811;1886;1992;2121;2299;2484;2582;2654;2690;2767;3113;4080;4079;4077;4072;1972;765;1413;2937;4071;3985;3671;3746;3215;2664;2380;2577;3039;3128;3059;3201;3279;3215;3016;2833;2738;2659;2707;2873;2967;3001;3013
Accel Y : 2411;2363;2370;2416;2500;2567;2661;2771;2826;2959;3109;3162;3124;3104;3123;3092;2987;2882;2790;2698;2631;2514;2449;2438;2418;2387;2301;2346;2388;2506;2637;2760;2833;2863;2831;2555;967;1061;3461;2886;1743;2153;2223;2167;1871;1636;1622;1797;1895;1922;1873;1830;1841;1844;1789;1690;1731;1830;2022;2291;2504;2751;3017;3352;3759;4078;4074;4077;4077;4083;4084;2508;567;420;1817;3257;3417;3038;2258;2131;2322;2467;2465;2461;2480;2425;2288;2275;2364;2439;2462;2464;2461;2442;2429;2405;2352;2318;2314;2365
Accel Z : 2035;1941;1982;2060;2116;2193;2223;2216;2191;2107;2093;2196;2280;2274;2243;2199;2173;2146;2127;2055;2029;2075;2055;1941;1850;1682;1641;1617;1519;1383;1333;1347;1364;1360;1119;141;18;18;615;2078;1307;2122;1670;1239;1320;1094;1086;1355;1400;1412;1585;1724;1868;1920;1953;1857;1727;1680;1740;1710;1674;1645;1756;1816;1826;1757;1689;1605;1614;1662;1522;54;1012;1860;2414;2114;1585;1866;1922;1719;2145;2240;2206;2078;1965;2135;2147;1973;1963;1919;1931;1944;1945;1981;1973;1974;2019;2043;2053;2022
Gyro X : 1759;1744;1722;1690;1640;1577;1518;1479;1487;1525;1584;1661;1740;1802;1865;1935;2016;2107;2187;2252;2294;2293;2291;2318;2354;2376;2398;2410;2411;2425;2450;2467;2489;2484;2331;2352;2290;2294;2318;2485;2690;2627;2176;1778;1560;1434;1358;1287;1234;1205;1192;1198;1277;1398;1531;1643;1733;1803;1857;1875;1861;1817;1758;1691;1631;1579;1544;1531;1508;1447;1338;1198;1049;934;866;825;887;1036;1275;1618;2073;2454;2698;2748;2502;2111;1741;1491;1387;1399;1511;1710;1925;2099;2202;2205;2137;2026;1892;1789
Gyro Y : 1730;1746;1762;1779;1792;1801;1823;1844;1864;1877;1899;1914;1926;1937;1944;1944;1943;1933;1921;1910;1891;1874;1859;1836;1814;1793;1771;1746;1720;1688;1646;1606;1552;1490;1414;1420;1364;1335;1351;1410;1497;1607;1751;1864;1937;1978;1999;2002;1992;1976;1953;1925;1906;1892;1882;1881;1885;1887;1891;1906;1914;1924;1933;1935;1935;1929;1917;1905;1891;1873;1844;1800;1742;1664;1582;1491;1385;1302;1250;1219;1197;1219;1290;1384;1495;1585;1621;1636;1660;1682;1700;1705;1708;1707;1700;1696;1695;1683;1672;1668
Gyro Z : 1632;1572;1510;1450;1383;1312;1241;1167;1097;1026;959;901;854;811;772;738;712;695;685;681;679;678;682;689;697;701;702;702;700;706;714;727;751;786;805;889;960;1048;1144;1307;1556;1829;2041;2233;2373;2489;2573;2621;2659;2685;2708;2722;2739;2759;2767;2776;2779;2777;2775;2774;2771;2765;2766;2767;2774;2783;2806;2823;2832;2834;2824;2819;2820;2824;2833;2839;2831;2818;2788;2740;2661;2574;2489;2403;2303;2195;2079;1976;1900;1854;1834;1824;1822;1823;1826;1830;1836;1839;1837;1840
COMMAND 1 SAMPLE 20
Accel X : 3890;3887;3695;3541;3563;3633;3625;3562;3547;3449;3377;3282;3177;2960;2774;2611;2453;2314;2200;2084;1984;1839;1603;1280;905;697;661;649;647;654;500;157;20;21;21;20;22;21;23;23;25;27;30;231;494;838;1109;1369;1622;1811;1943;2055;2076;2090;2204;2790;3682;4083;3953;3020;2558;2570;3073;4072;4076;4074;4072;3851;3708;3539;3439;3396;3227;3149;3082;3107;3093;3080;3067;3030;2965;2882;2822;2801;2860;2911;2938;2933;2914;2903;2847;2814;2791;2837;2817;2834;2792;2797;2792;2761
Accel Y : 2503;2552;2551;2540;2664;2747;2780;2785;2703;2611;2559;2514;2468;2390;2340;2323;2297;2333;2382;2426;2487;2577;2611;2635;2599;2403;2243;2299;2366;2416;2469;2310;2134;2096;2106;2128;2138;2146;2137;2154;2216;2272;2303;2303;2339;2289;2287;2279;2247;2188;2244;2264;2309;2369;2574;2880;3223;3798;3062;2528;2597;3259;4077;4082;3599;2975;2796;2601;2417;2341;2367;2448;2481;2381;2321;2272;2272;2279;2285;2251;2182;2119;2118;2108;2111;2131;2131;2119;2131;2100;2160;2154;2163;2164;2193;2195;2176;2179;2179;2182
Accel Z : 1614;1611;1585;1538;1525;1592;1590;1682;1579;1603;1607;1650;1771;1856;1923;1928;1907;1824;1804;1733;1697;1723;1723;1675;1543;1585;1489;1330;1267;1329;1301;1219;1115;1090;1153;1223;1246;1251;1358;1420;1416;1402;1417;1459;1512;1598;1691;1752;1811;1822;1739;1723;1732;1612;1339;1122;1379;2409;1972;2159;1524;1034;1572;2547;2422;2311;1841;1699;1853;1997;2097;2087;2048;2032;2008;2031;2010;2026;2041;2053;2078;2099;2120;2132;2140;2116;2089;2129;2122;2112;2056;2021;2014;1983;1980;1995;2004;1991;1992;1976
Gyro X : 2188;2200;2186;2155;2117;2132;2197;2249;2288;2327;2361;2397;2422;2446;2456;2423;2253;1968;1675;1565;1582;1798;2065;2405;2595;2400;2065;1829;1550;1247;1022;973;1028;1131;1255;1392;1543;1716;1870;1952;1969;1941;1867;1759;1659;1602;1553;1524;1521;1543;1583;1616;1650;1683;1709;1727;1748;1762;1774;1781;1801;1847;1924;1984;1993;1953;1736;1421;1315;1873;1985;1978;1726;1691;1783;2075;2135;2242;2261;2128;1969;1746;1605;1589;1597;1656;1722;1792;1864;1932;1994;2020;1995;1954;1911;1870;1842;1817;1785;1773
Gyro Y : 1935;1909;1875;1839;1801;1782;1769;1760;1759;1744;1714;1682;1651;1629;1606;1574;1538;1518;1553;1640;1711;1731;1731;1710;1733;1819;1855;1849;1860;1840;1792;1729;1689;1667;1646;1624;1606;1596;1593;1597;1605;1614;1631;1643;1645;1641;1637;1631;1619;1601;1589;1580;1571;1559;1551;1548;1553;1552;1550;1546;1534;1529;1523;1525;1539;1517;1436;1327;1369;1528;1928;1883;1728;1568;1626;1697;1763;1792;1757;1715;1701;1674;1652;1654;1658;1661;1666;1670;1675;1677;1676;1675;1671;1666;1661;1656;1656;1652;1648;1650
Gyro Z : 522;483;459;456;452;456;468;477;489;500;511;521;533;551;573;602;646;699;759;834;925;1041;1170;1354;1589;1828;1995;2120;2229;2325;2399;2444;2472;2499;2520;2544;2560;2578;2598;2619;2646;2671;2689;2715;2735;2753;2765;2780;2793;2807;2825;2841;2854;2876;2903;2933;2976;3025;3075;3131;3182;3243;3301;3357;3394;3395;3285;2796;2125;2088;1951;1844;1870;1858;1858;1834;1811;1813;1806;1815;1844;1848;1846;1847;1841;1835;1825;1810;1800;1796;1801;1812;1818;1821;1824;1825;1827;1826;1824;1827
COMMAND 1 SAMPLE 21
Accel X : 3572;3483;3267;3041;2833;2652;2492;2370;2268;2193;2134;1995;1876;1749;1678;1675;1608;1563;1536;1482;1371;1198;1049;969;865;471;19;20;21;55;1504;678;23;22;737;1613;1785;1392;996;874;998;1083;972;923;948;1123;1229;1252;1315;1447;1557;1579;1623;1684;1840;1949;2028;2018;2057;2125;2166;2180;2199;2231;2243;2232;2207;2207;2300;2501;2798;3020;3093;3026;2973;3086;3386;3677;3794;3856;4003;4076;4072;3632;2632;2042;2268;2859;3293;3627;3718;3753;3529;3206;2872;2664;2657;2754;2842;2933
Accel Y : 2712;2732;2743;2700;2593;2423;2191;2122;2069;2032;1965;1910;1852;1858;1896;1917;1991;2003;2027;1985;1986;1982;1960;1967;1970;1907;1725;1049;866;2587;2650;1405;1117;1843;1784;1494;1321;1304;1313;1308;1355;1428;1466;1483;1547;1613;1582;1544;1535;1539;1530;1547;1606;1671;1722;1749;1805;1823;1838;1916;1980;2095;2170;2223;2242;2275;2341;2457;2588;2750;2807;2793;2789;2807;2763;2765;2945;3162;3259;3134;2890;2561;2222;1891;2156;2715;2944;2663;2332;2300;2420;2467;2491;2464;2470;2483;2431;2405;2400;2391
Accel Z : 1745;1842;1926;2062;2091;2081;2005;1979;1922;1909;1881;1919;1865;1823;1826;1878;1849;1783;1808;1831;1771;1703;1772;1809;1732;1678;1089;18;19;1671;2366;2198;1824;1660;1790;1611;1456;1303;1190;1251;1510;1630;1641;1675;1705;1817;1896;1891;1920;1978;1991;2068;2045;1982;1945;1993;1914;1835;1790;1877;1888;1881;1897;1937;2027;2002;1932;1840;1846;1755;1732;1757;1647;1596;1534;1711;2031;2265;2237;1995;1675;1425;988;1591;2047;2402;2472;2284;1983;1845;1807;1898;2062;2169;2157;2163;2200;2163;2158;2094
Gyro X : 2322;2363;2397;2392;2350;2316;2287;2254;2200;2108;2004;1963;2014;2206;2722;3438;1251;500;2714;3620;2588;1943;1508;1190;889;759;800;851;888;1029;1301;1637;1894;1983;1927;1794;1635;1487;1407;1365;1339;1316;1303;1314;1365;1426;1500;1576;1585;1538;1368;1619;2081;2151;2116;1823;1890;2502;2683;2491;2150;1624;1145;1133;1328;1512;1674;1871;2040;2163;2216;2189;2110;1996;1896;1831;1815;1834;1845;1864;1890;1909;1927;1943;1962;1967;1954;1927;1896;1870;1848;1829;1822;1834;1856;1884;1899;1902;1905;1899
Gyro Y : 1266;1228;1197;1174;1162;1170;1188;1189;1183;1181;1184;1202;1232;1258;1202;917;1505;2119;1810;1933;2085;2152;2126;2061;2039;2066;2063;2028;1972;1911;1874;1875;1898;1942;1967;1977;1978;1965;1940;1915;1887;1861;1834;1814;1802;1792;1773;1749;1682;1465;1058;1211;1224;1988;2066;1646;1408;1763;1869;1857;1810;1741;1701;1671;1694;1666;1648;1665;1669;1671;1672;1667;1664;1663;1652;1646;1651;1656;1654;1648;1646;1641;1643;1641;1645;1644;1639;1638;1636;1636;1642;1645;1646;1649;1649;1651;1650;1648;1649;1649
Gyro Z : 483;496;521;547;565;584;605;623;635;649;668;693;726;782;887;1186;1371;1730;2439;2525;2474;2501;2533;2525;2533;2576;2614;2663;2716;2774;2827;2870;2902;2926;2943;2961;2989;3022;3056;3095;3137;3189;3250;3312;3386;3453;3508;3546;3559;3493;2943;2161;1998;1832;1781;1722;1718;1802;1772;1766;1788;1825;1857;1887;1931;1952;1953;1941;1916;1887;1859;1837;1820;1816;1819;1826;1838;1848;1852;1854;1849;1838;1829;1820;1822;1822;1825;1829;1832;1834;1834;1834;1835;1837;1837;1840;1838;1836;1835;1833
COMMAND 1 SAMPLE 22
Accel X : 3314;3372;3530;3691;3734;3703;3628;3577;3532;3477;3431;3429;3510;3542;3477;3362;3220;3063;2882;2768;2626;2513;2403;2342;2233;2110;1990;1820;1611;1418;1234;1000;832;620;393;254;112;20;21;21;20;21;23;22;24;23;25;26;197;532;812;1069;1314;1566;1814;1954;2075;2116;2083;2166;2550;3167;3807;3991;3638;3113;2891;3075;3518;3865;3882;3830;3737;3666;3565;3553;3479;3406;3328;3267;3257;3343;3377;3364;3308;3216;3081;2959;2917;2862;2882;2914;2928;2921;2926;2926;2917;2883;2843;2828
Accel Y : 2228;2202;2194;2192;2258;2310;2349;2379;2440;2472;2481;2498;2444;2385;2353;2351;2371;2374;2328;2291;2299;2302;2323;2310;2341;2331;2385;2472;2542;2568;2532;2506;2411;2337;2275;2276;2236;2191;2123;2073;2130;2142;2105;2099;2097;2064;2043;2062;2111;2131;2119;2075;2085;2070;2106;2123;2166;2224;2285;2415;2690;3019;3287;3326;2819;2617;2766;3128;3393;3377;3165;3059;2943;2806;2589;2387;2316;2376;2452;2453;2333;2188;2135;2181;2215;2222;2179;2133;2076;2062;2048;2076;2091;2071;2085;2079;2067;2084;2094;2099
Accel Z : 1755;1682;1680;1672;1663;1640;1619;1641;1550;1425;1374;1406;1486;1525;1534;1552;1610;1732;1742;1763;1752;1773;1775;1730;1790;1810;1854;1844;1779;1676;1675;1639;1592;1598;1572;1527;1566;1586;1535;1478;1476;1509;1566;1627;1588;1493;1470;1487;1579;1656;1721;1807;1776;1846;1847;1893;1883;1767;1567;1333;1093;1148;1916;2002;1817;1744;1480;1533;1692;2047;2104;2088;1899;1634;1533;1643;1805;1904;1884;1869;1821;1833;1828;1869;1857;1835;1820;1801;1798;1832;1832;1864;1856;1844;1812;1807;1802;1815;1815;1772
Gyro X : 1748;1849;1969;2119;2242;2289;2266;2192;2074;1991;1937;1905;1899;1899;1892;1897;1900;1887;1843;1803;1774;1760;1756;1757;1804;1871;1934;2033;2103;2119;2139;2172;2261;2398;2610;3297;2882;1715;1079;2732;2767;1657;1403;1173;1208;1181;939;798;776;776;834;980;1188;1429;1662;1837;1877;1792;1705;1638;1579;1548;1558;1632;1763;1890;1970;1979;1934;1883;1692;2033;2702;2761;2649;1863;1160;1226;1592;1678;1705;1875;1876;1783;1607;1616;1798;1868;1893;1939;1982;2005;1978;1921;1868;1799;1762;1790;1831;1871
Gyro Y : 1679;1688;1698;1716;1719;1700;1682;1652;1629;1602;1559;1503;1458;1436;1411;1373;1332;1305;1282;1269;1252;1240;1252;1268;1275;1283;1293;1312;1331;1352;1371;1371;1385;1397;1356;1188;867;1679;2019;1842;1953;2110;2104;2047;1959;1936;1968;1951;1895;1826;1759;1731;1709;1675;1660;1663;1683;1717;1747;1753;1741;1723;1713;1711;1713;1721;1725;1701;1608;1411;1120;1264;1210;1749;2183;1851;1639;1456;1615;1732;1748;1750;1712;1705;1686;1643;1651;1672;1671;1664;1655;1656;1661;1657;1650;1643;1632;1633;1644;1644
Gyro Z : 1655;1631;1606;1571;1523;1451;1373;1287;1200;1116;1033;962;893;831;772;719;678;641;606;574;544;516;491;469;455;453;454;454;456;463;474;494;526;571;643;766;1072;1359;1895;2502;2555;2517;2602;2647;2679;2663;2702;2732;2771;2817;2848;2887;2926;2956;2982;3002;3023;3053;3087;3131;3176;3225;3295;3366;3439;3507;3554;3573;3562;3469;3056;2356;2052;1845;1805;1643;1695;1734;1834;1815;1807;1834;1864;1894;1914;1919;1930;1932;1924;1905;1883;1862;1846;1832;1830;1828;1830;1839;1849;1858
COMMAND 1 SAMPLE 23
Accel X : 3086;3200;3276;3362;3514;3811;4067;4067;3961;3749;3586;3429;3271;3169;3211;3418;3560;3550;3351;3066;2894;2772;2629;2558;2448;2458;2453;2390;2232;2076;1917;1729;1637;1544;1462;1385;1271;1072;734;19;17;18;20;1116;1455;24;24;22;628;1151;1342;1132;1088;1201;1349;1474;1448;1333;1153;1167;1237;1320;1363;1372;1448;1526;1621;1791;1908;2002;2069;2116;2130;2160;2228;2267;2309;2364;2404;2429;2440;2481;2506;2587;2788;3224;4079;4073;4074;3582;1582;1733;2975;3948;4025;3701;3823;3907;3680;3258
Accel Y : 2457;2449;2450;2419;2431;2399;2483;2602;2762;2826;2829;2854;2914;2922;2918;2927;2892;2895;2908;2887;2803;2650;2459;2339;2319;2285;2326;2310;2344;2302;2300;2293;2305;2380;2476;2534;2534;2485;2426;2349;2102;1040;1463;2862;2398;1563;1677;2079;2063;1864;1719;1638;1642;1708;1659;1653;1673;1766;1775;1772;1728;1737;1772;1800;1859;1905;1938;1974;1990;2010;2116;2175;2223;2297;2374;2468;2576;2750;2894;3084;3348;3694;4073;4077;4076;4077;4079;3542;1714;113;1947;3496;3469;2726;2216;2309;2611;2906;2841;2688
Accel Z : 1902;1817;1685;1447;1183;1095;1145;1177;1234;1258;1286;1279;1302;1326;1307;1311;1328;1377;1359;1332;1443;1578;1669;1669;1710;1718;1715;1710;1687;1621;1540;1531;1568;1667;1688;1771;1778;1849;1953;1867;1541;471;20;694;2523;1259;1313;2170;2126;2125;1971;1668;1421;1467;1595;1792;1997;2039;2016;2025;2018;1968;1931;1895;1856;1831;1834;1793;1818;1805;1818;1812;1810;1787;1775;1741;1715;1661;1623;1543;1536;1497;1462;1401;1450;1610;1894;219;21;1677;2302;2238;2119;1987;1529;1167;1317;1648;1943;2048
Gyro X : 1744;1924;2046;2064;2007;1970;1942;1911;1918;1944;1977;2031;2104;2171;2221;2283;2334;2360;2385;2397;2407;2449;2519;2559;2538;2439;2383;2333;2229;2234;2334;2402;2342;2131;1915;1811;1803;1798;1807;1815;1809;1760;1694;1650;1608;1568;1528;1470;1392;1297;1239;1235;1267;1225;1041;855;944;1673;2505;2571;2085;1672;1431;1476;1950;2017;2072;2077;2055;1943;1787;1703;1731;1781;1790;1785;1789;1825;1866;1895;1921;1928;1902;1855;1816;1808;1816;1831;1843;1853;1861;1862;1850;1837;1838;1832;1833;1847;1852;1854
Gyro Y : 1773;1762;1773;1800;1835;1859;1875;1884;1878;1869;1840;1812;1765;1735;1715;1697;1677;1660;1646;1621;1606;1587;1543;1491;1426;1390;1419;1425;1428;1411;1381;1370;1389;1442;1512;1587;1650;1720;1791;1865;1926;1976;2009;2030;2042;2059;2071;2067;2047;2039;2010;1935;1873;1846;1872;1969;2015;1697;1473;1640;1942;2192;2007;1719;1665;1597;1527;1479;1475;1529;1609;1646;1637;1622;1625;1663;1694;1696;1681;1660;1646;1644;1653;1665;1672;1671;1662;1659;1664;1667;1667;1665;1667;1666;1667;1667;1667;1664;1661;1666
Gyro Z : 1399;1327;1248;1167;1083;999;923;855;802;756;714;679;645;617;597;583;576;576;582;593;603;622;642;660;657;691;744;786;847;914;1013;1133;1259;1395;1555;1734;1925;2130;2328;2505;2666;2802;2911;3011;3089;3156;3208;3241;3269;3289;3261;3243;3252;3261;3266;3286;3310;3289;3249;3241;3171;3092;2964;2859;2724;2618;2439;2285;2158;2061;1983;1915;1858;1820;1791;1782;1778;1780;1778;1775;1776;1778;1783;1785;1787;1785;1780;1779;1775;1775;1773;1771;1769;1770;1768;1767;1766;1767;1767;1771
COMMAND 1 SAMPLE 24
Accel X : 3403;3267;3166;3075;2936;2819;2695;2486;2328;2215;2099;2016;1943;1880;1789;1713;1632;1594;1502;1362;1184;999;735;267;19;19;20;20;1026;654;25;23;356;852;1064;994;852;1040;1345;1570;1700;1681;1563;1468;1441;1525;1586;1625;1642;1677;1752;1859;1915;1988;2064;2124;2174;2211;2205;2265;2276;2222;2210;2367;2738;3284;3865;4080;4076;4076;4077;4073;3023;991;131;1290;2868;3636;4074;4071;4071;3741;3160;2723;2639;2779;2796;2876;2990;3056;3088;3005;2909;2790;2679;2748;2810;2837;2835;2789
Accel Y : 2581;2506;2432;2390;2334;2286;2235;2177;2100;2013;2010;2025;2073;2141;2215;2225;2279;2323;2360;2422;2441;2365;2266;2157;1883;1386;1308;2320;2782;1824;1419;1629;1783;1755;1625;1506;1481;1590;1631;1607;1527;1465;1478;1493;1520;1549;1586;1613;1643;1681;1740;1819;1910;1955;2017;2115;2246;2346;2423;2491;2697;2940;3260;3543;3960;4080;4081;4083;4083;3633;2891;2089;1352;1802;2836;3322;2903;2482;2293;2314;2656;2779;2652;2474;2461;2463;2447;2503;2521;2545;2584;2525;2541;2543;2528;2580;2596;2594;2553;2555
Accel Z : 1850;1898;1904;1863;1856;1847;1833;1851;1875;1862;1870;1825;1790;1798;1746;1702;1715;1704;1703;1690;1694;1733;1785;1761;1612;1585;1252;958;1890;2298;1586;1583;1752;1765;1663;1655;1550;1567;1762;1856;1933;1951;1941;1916;1925;1967;1934;1900;1900;1837;1845;1861;1859;1803;1843;1851;1874;1832;1774;1783;1711;1615;1570;1525;1594;2007;2203;1955;1178;1453;2193;1532;1685;2238;1991;2301;2306;1792;1894;2130;2226;2259;2288;2100;2078;2301;2363;2322;2259;2179;2130;2094;2052;2049;2069;2058;2048;2058;2017;2043
Gyro X : 2216;2245;2275;2299;2309;2337;2367;2379;2356;2323;2270;2229;2179;2107;2067;2060;2024;2003;2037;2078;2137;2184;2200;2177;2104;2118;2082;2110;2033;1918;1749;1583;1470;1395;1371;1396;1442;1494;1528;1531;1524;1552;1638;1693;1629;1446;1172;974;1133;1530;1975;2394;2343;2050;1887;2037;2298;2402;2311;2082;1855;1637;1504;1462;1470;1490;1521;1571;1645;1745;1844;1917;1955;1950;1938;1933;1940;1929;1910;1888;1862;1864;1883;1874;1865;1863;1859;1864;1862;1848;1838;1843;1859;1867;1858;1869;1889;1896;1904;1907
Gyro Y : 1784;1786;1774;1756;1754;1752;1734;1716;1698;1689;1686;1690;1679;1689;1690;1676;1690;1676;1667;1669;1643;1616;1590;1561;1539;1515;1493;1516;1551;1610;1674;1729;1760;1774;1784;1796;1806;1812;1796;1781;1782;1784;1799;1792;1796;1841;1893;1922;1919;1830;1622;1616;1660;1769;1850;1806;1679;1564;1479;1449;1528;1640;1683;1643;1573;1549;1602;1675;1716;1706;1675;1661;1670;1695;1715;1712;1694;1685;1681;1685;1688;1688;1680;1672;1676;1678;1676;1672;1670;1668;1671;1671;1666;1670;1677;1685;1683;1677;1674;1675
Gyro Z : 782;782;788;795;803;815;824;835;847;865;884;906;933;964;994;1026;1067;1108;1152;1201;1253;1320;1392;1492;1625;1756;1926;2083;2260;2421;2573;2701;2807;2894;2969;3028;3073;3106;3123;3135;3155;3157;3156;3174;3181;3193;3200;3211;3269;3276;3243;3185;3109;3020;2927;2834;2682;2522;2375;2242;2136;2040;1948;1871;1816;1783;1773;1773;1780;1786;1788;1793;1801;1809;1818;1825;1825;1824;1821;1819;1821;1819;1818;1812;1806;1801;1796;1794;1788;1783;1782;1780;1776;1775;1777;1778;1779;1779;1779;1779
COMMAND 1 SAMPLE 25
Accel X : 3395;3145;2880;2666;2567;2456;2354;2236;2112;1989;1892;1772;1626;1445;1145;661;194;16;18;140;342;94;18;18;20;21;21;23;23;24;283;702;955;1137;1257;1394;1466;1477;1401;1279;1213;1151;1111;1188;1370;1499;1663;1816;1931;2029;2089;2109;2149;2154;2125;2115;2131;2129;2190;2282;2427;2563;2663;2655;2735;2993;3823;4079;4076;4072;2292;1594;2469;3499;4070;4073;3894;3640;3272;2966;2705;2646;2880;2985;3100;3175;3138;3109;3026;2972;2829;2763;2757;2742;2757;2743;2750;2693;2677;2713
Accel Y : 3145;3066;2950;2805;2602;2438;2313;2263;2307;2426;2495;2576;2657;2732;2833;2857;2782;2550;2222;2063;2167;2299;2292;2185;2091;2258;2392;2105;1933;2014;2056;1987;1824;1784;1811;1802;1765;1722;1706;1696;1695;1715;1722;1800;1855;1886;1903;1959;2004;1985;1991;2027;2041;2094;2125;2155;2253;2351;2555;2757;2976;3245;3568;3915;4076;4077;4079;3656;1942;35;1149;3091;3515;2773;2089;1835;2021;2369;2551;2551;2486;2398;2278;2232;2275;2319;2333;2301;2315;2298;2298;2287;2289;2292;2295;2279;2294;2309;2301;2312
Accel Z : 1213;1273;1364;1439;1540;1620;1624;1644;1666;1655;1691;1690;1722;1709;1652;1527;1370;1327;1493;1613;1693;2061;1964;2113;1774;1646;1971;2040;1846;1592;1538;1610;1747;1900;1992;2041;2133;2157;2115;2031;1945;1883;1829;1838;1894;1904;1932;1938;1970;1926;1916;1893;1873;1850;1811;1790;1735;1774;1765;1786;1815;1816;1871;1870;1839;1833;1800;904;22;1683;2649;2645;2121;1608;1284;1109;1316;1949;2309;2399;2264;2123;2109;2048;1986;1885;1830;1843;1868;1912;1903;1916;1939;1947;1939;1929;1923;1918;1911;1921
Gyro X : 1737;1717;1701;1691;1668;1618;1567;1514;1490;1515;1570;1636;1728;1823;1895;1937;1945;1933;1934;1956;1994;2073;2154;2212;2252;2270;2274;2282;2295;2293;2269;2276;2285;2286;2280;2279;2279;2300;2315;2367;2431;2603;2789;2605;2295;2370;2093;1526;1147;1104;1183;1272;1325;1318;1296;1341;1415;1519;1645;1766;1853;1909;1933;1925;1888;1819;1724;1603;1467;1336;1202;1080;1042;1130;1323;1511;1599;1605;1582;1578;1635;1756;1954;2139;2253;2238;2094;1842;1642;1550;1576;1643;1705;1761;1809;1872;1913;1919;1899;1867
Gyro Y : 1679;1692;1707;1730;1751;1769;1789;1804;1819;1833;1854;1871;1880;1886;1889;1883;1881;1875;1870;1867;1857;1849;1844;1831;1813;1788;1764;1744;1724;1706;1690;1670;1647;1629;1614;1608;1593;1571;1542;1482;1396;1335;1265;1278;1570;1787;1933;2001;2036;2050;2021;1991;1959;1917;1892;1872;1844;1827;1816;1818;1827;1839;1854;1867;1880;1890;1899;1907;1909;1903;1888;1854;1804;1736;1679;1647;1619;1596;1573;1539;1506;1473;1436;1410;1405;1410;1438;1494;1542;1563;1579;1611;1645;1671;1685;1691;1691;1687;1677;1671
Gyro Z : 1737;1701;1654;1605;1541;1467;1391;1311;1233;1159;1095;1038;988;944;899;861;826;806;798;796;795;800;801;796;798;799;798;802;805;806;804;799;790;783;782;790;807;831;863;905;939;1031;1181;1359;1596;1970;2269;2442;2587;2709;2757;2761;2758;2735;2728;2726;2726;2735;2738;2743;2745;2749;2753;2756;2757;2762;2766;2772;2767;2771;2772;2776;2800;2808;2815;2797;2775;2767;2757;2733;2691;2634;2571;2495;2420;2357;2301;2241;2180;2098;2020;1956;1906;1871;1840;1819;1805;1797;1797;1805
COMMAND 1 SAMPLE 26
Accel X : 3042;3147;3273;3429;3552;3559;3533;3479;3496;3559;3686;3802;4021;4058;3913;3684;3436;3205;2954;2786;2539;2348;2159;2032;1975;1835;1720;1624;1485;1352;1215;1031;842;589;201;19;18;20;21;1301;1098;230;30;281;715;964;961;882;1061;1381;1668;1831;1851;1716;1547;1465;1552;1628;1721;1781;1852;1891;1940;2006;2102;2210;2331;2378;2326;2288;2262;2228;2255;2302;2435;2672;3056;3559;3961;4079;4075;4075;4071;1828;451;572;2537;3632;3649;3623;4071;4070;3940;3173;2535;2233;2428;2751;2848;2944
Accel Y : 2574;2555;2578;2589;2664;2755;2834;2840;2883;2944;2954;2923;2890;2866;2841;2835;2859;2773;2694;2580;2455;2299;2133;2016;2029;2099;2180;2283;2312;2304;2321;2254;2199;2119;2005;1822;1315;1247;2465;2884;1896;1491;1626;1716;1667;1562;1525;1647;1764;1782;1676;1589;1565;1605;1618;1585;1620;1651;1660;1655;1692;1765;1825;1910;1967;1999;2108;2193;2243;2323;2477;2714;3001;3286;3630;4015;4079;4081;4081;4084;3324;2126;489;924;2950;3795;3511;2636;2223;2148;2485;2818;2856;2685;2545;2561;2564;2489;2432;2449
Accel Z : 1963;1947;1942;2015;2070;1955;1933;1909;1870;1735;1638;1617;1670;1777;1858;1894;1930;1978;1979;1915;1877;1813;1799;1810;1848;1810;1787;1695;1574;1491;1386;1374;1374;1398;1394;1187;563;734;1277;2237;2740;1903;1496;1416;1538;1504;1591;1645;1700;1846;1936;2005;2043;2001;1881;1859;1835;1835;1806;1808;1807;1824;1817;1826;1856;1890;1929;1920;1867;1780;1755;1633;1641;1614;1631;1727;1862;1882;1577;1270;1024;23;1569;2101;2663;1913;2611;2165;1820;1438;1628;1876;2071;2106;2078;1967;2067;2171;2109;2106
Gyro X : 1803;1800;1782;1759;1760;1797;1839;1842;1838;1852;1868;1919;1952;2008;2070;2129;2196;2264;2303;2351;2426;2500;2555;2568;2560;2544;2507;2456;2287;2196;2158;2135;2111;2043;2035;1962;1922;1878;1908;1982;2013;1993;1928;1877;1859;1827;1788;1745;1715;1651;1534;1391;1401;1431;1297;1019;847;905;1264;1814;2282;2260;1821;1534;1613;1885;2115;2243;2320;2294;2185;2033;1899;1827;1783;1761;1748;1775;1857;1935;1995;2040;2071;2075;2036;1949;1871;1831;1804;1787;1758;1717;1691;1682;1682;1691;1702;1715;1727;1732
Gyro Y : 1760;1775;1790;1802;1814;1816;1819;1830;1845;1848;1853;1846;1839;1836;1825;1812;1794;1775;1754;1742;1711;1678;1650;1623;1590;1560;1512;1451;1510;1532;1530;1539;1548;1557;1566;1576;1595;1620;1643;1670;1714;1764;1825;1886;1940;1991;2043;2082;2093;2096;2080;2070;1984;1888;1871;1902;1975;2045;2056;1674;1532;1676;1851;1912;1812;1724;1656;1587;1485;1414;1464;1575;1647;1653;1620;1600;1626;1672;1699;1695;1672;1648;1633;1628;1637;1655;1677;1688;1678;1665;1655;1661;1665;1662;1655;1647;1643;1643;1643;1645
Gyro Z : 1377;1330;1280;1228;1178;1128;1075;1026;977;935;896;865;836;811;791;781;772;765;764;756;758;758;763;772;786;802;816;804;881;943;1015;1110;1219;1344;1462;1588;1732;1880;2034;2189;2343;2492;2638;2765;2880;2975;3056;3110;3146;3181;3218;3240;3197;3194;3219;3231;3243;3269;3310;3267;3232;3159;3092;3010;2931;2833;2706;2551;2391;2233;2099;1987;1882;1797;1738;1703;1688;1685;1689;1700;1710;1721;1735;1751;1773;1792;1805;1815;1821;1827;1827;1827;1824;1818;1810;1803;1790;1783;1778;1771
COMMAND 1 SAMPLE 27
Accel X : 3289;3207;3144;3119;3074;3029;2940;2848;2791;2659;2531;2374;2208;2082;1903;1720;1551;1470;1541;1653;1635;1557;1403;1089;610;251;263;318;336;135;23;23;23;25;418;843;1129;1277;1422;1512;1527;1557;1530;1571;1679;1820;1972;2059;2083;2050;2023;2063;2108;2192;2229;2285;2338;2355;2336;2346;2372;2355;2362;2379;2426;2586;2772;3134;3935;4076;4073;4000;2126;1860;2505;3498;3762;3345;3205;3498;3636;3344;3063;2952;3035;3286;3288;3271;3185;3078;3020;2917;2826;2748;2800;2825;2800;2785;2786;2834
Accel Y : 2451;2417;2351;2278;2250;2301;2303;2291;2259;2246;2243;2187;2148;2141;2124;2017;1954;1947;1972;1974;1902;1826;1749;1694;1536;1497;1468;1455;1453;1405;1293;1263;1335;1418;1416;1388;1392;1401;1417;1388;1330;1325;1375;1396;1494;1571;1622;1645;1708;1774;1859;1950;2021;2074;2097;2139;2229;2354;2499;2633;2809;2991;3199;3435;3650;3828;4056;4079;4080;3301;1919;471;1195;3308;3447;2859;2258;2194;2247;2454;2553;2540;2498;2529;2487;2380;2297;2307;2355;2391;2407;2381;2428;2436;2471;2496;2511;2489;2470;2447
Accel Z : 2005;1996;1951;1952;1946;2022;2074;2163;2152;2122;2153;2114;2044;2052;2048;1933;1696;1622;1764;1940;1874;1898;2022;2117;2107;2158;2539;2350;2154;2228;2028;1873;1865;1894;2026;2172;2249;2306;2314;2344;2242;2074;1985;1930;1903;1974;2023;2107;2132;2069;2110;2065;1984;1906;1789;1777;1769;1812;1782;1822;1824;1845;1787;1676;1591;1580;1579;1540;1543;501;24;1350;1346;2553;2099;2113;1594;1159;1079;1322;1697;1597;1646;1559;1540;1655;1491;1507;1484;1534;1652;1730;1713;1717;1752;1760;1719;1683;1662;1672
Gyro X : 2027;2089;2125;2162;2208;2230;2240;2247;2231;2223;2235;2260;2319;2393;2447;2496;2538;2568;2590;2591;2554;2497;2386;2267;2223;2255;2297;2216;2016;1847;1746;1689;1766;1895;1892;1831;1717;1638;1562;1497;1439;1397;1406;1424;1441;1436;1403;1399;1434;1571;1600;1291;810;453;473;1171;2183;2443;2675;2733;2608;2390;2210;2053;1864;1659;1502;1478;1553;1686;1789;1826;1827;1829;1827;1807;1768;1732;1731;1764;1799;1840;1876;1881;1880;1863;1838;1806;1769;1756;1766;1783;1786;1778;1789;1814;1845;1875;1905;1937
Gyro Y : 1990;1975;1961;1940;1914;1886;1859;1836;1819;1805;1791;1774;1753;1733;1710;1682;1659;1626;1596;1548;1504;1458;1484;1524;1544;1551;1532;1537;1567;1597;1624;1643;1663;1680;1721;1769;1815;1845;1860;1864;1872;1875;1870;1870;1874;1875;1907;1942;1934;1903;1898;1954;2045;2009;1745;1343;1326;1448;1591;1630;1607;1567;1564;1572;1611;1672;1709;1692;1647;1618;1614;1644;1665;1667;1655;1645;1650;1663;1672;1673;1666;1658;1651;1647;1647;1648;1648;1649;1652;1656;1659;1659;1664;1671;1676;1678;1681;1687;1697;1704
Gyro Z : 1046;992;938;892;855;826;801;780;763;752;744;736;732;728;723;722;725;728;737;750;768;769;818;876;936;1009;1096;1200;1311;1436;1579;1752;1944;2109;2289;2450;2598;2726;2839;2939;3029;3106;3172;3225;3273;3328;3363;3386;3431;3435;3430;3453;3457;3474;3464;3430;3358;3297;3125;2892;2660;2447;2259;2109;2011;1938;1877;1822;1786;1771;1779;1799;1816;1832;1838;1840;1836;1835;1830;1824;1816;1809;1806;1802;1797;1791;1783;1780;1776;1774;1771;1765;1762;1759;1757;1754;1752;1751;1749;1748
COMMAND 1 SAMPLE 28
Accel X : 2625;2464;2323;2233;2179;2105;2013;1869;1747;1591;1493;1376;1236;1191;1107;1062;977;926;901;846;666;452;105;21;21;22;22;21;22;24;26;24;63;293;574;821;1055;1245;1433;1619;1785;2010;2088;2111;2083;2119;2338;2680;3453;4012;4077;3601;3046;3128;3678;4077;4073;4001;3566;3346;3343;3355;3327;3224;3129;3111;3142;3162;3133;3096;3036;2967;2862;2851;2885;2932;2914;2883;2857;2800;2876;2896;2895;2861;2899;2894;2894;2864;2830;2807;2835;2860;2833;2837;2839;2862;2831;2835;2813;2817
Accel Y : 2117;2110;2112;2085;2118;2151;2183;2205;2207;2183;2168;2159;2137;2134;2103;2075;2099;2049;2034;2047;2037;2031;2022;2033;1969;2029;1896;1993;1928;1946;1927;1957;2038;2032;2041;2068;2022;2013;2025;2018;2034;2058;2091;2114;2225;2352;2604;2893;3031;3344;3481;3297;3192;3273;3615;3618;3405;3025;2739;2460;2270;2253;2465;2578;2538;2331;2214;2219;2294;2344;2315;2195;2128;2133;2135;2163;2178;2144;2132;2140;2136;2166;2191;2174;2191;2215;2241;2258;2257;2232;2244;2256;2224;2207;2193;2204;2211;2202;2191;2204
Accel Z : 1651;1716;1763;1740;1687;1726;1758;1716;1695;1662;1627;1620;1634;1603;1636;1686;1695;1751;1857;1845;1856;1891;1859;1821;1718;1732;1814;1705;1682;1624;1536;1503;1515;1617;1641;1749;1787;1770;1788;1815;1854;1855;1779;1664;1489;1416;1420;1615;2057;2362;2007;1452;1074;1201;2040;2614;2481;2201;1734;1564;1720;1891;1972;2012;1968;1959;1965;2003;2014;1994;2027;2051;2068;2078;2112;2054;2064;2070;2037;2106;2094;2085;2067;2047;2003;2008;1996;1993;1989;1924;1961;1997;2012;2044;2057;2051;2061;2040;2007;2021
Gyro X : 1711;1801;1895;1959;2015;2066;2106;2132;2146;2154;2169;2209;2228;2266;2300;2311;2328;2344;2376;2413;2416;2394;2371;2360;2376;2419;2446;2462;2430;2394;2349;2325;2332;2306;2186;2035;1863;1889;1848;1759;1667;1586;1531;1520;1531;1543;1542;1549;1553;1517;1457;1421;1478;1419;1177;854;525;477;1236;2097;2335;2220;1994;1960;2049;2094;2047;1994;1924;1710;1485;1377;1373;1417;1466;1503;1556;1642;1753;1853;1931;1991;2050;2096;2119;2116;2103;2087;2059;2032;1995;1959;1929;1902;1883;1874;1874;1867;1851;1851
Gyro Y : 1883;1880;1884;1893;1899;1889;1878;1859;1846;1836;1823;1810;1787;1757;1726;1702;1689;1675;1646;1603;1573;1571;1574;1572;1551;1508;1465;1405;1408;1434;1436;1427;1383;1393;1440;1507;1603;1708;1816;1926;2000;2045;2063;2066;2063;2067;2077;2083;2079;2054;2053;1987;1930;1923;1962;2044;2092;2101;1714;1368;1448;1651;1871;1895;1709;1626;1577;1496;1437;1455;1531;1606;1621;1596;1575;1589;1631;1677;1704;1704;1693;1682;1685;1692;1697;1698;1691;1684;1676;1679;1686;1691;1689;1682;1680;1678;1680;1685;1688;1689
Gyro Z : 1342;1327;1315;1301;1274;1242;1203;1163;1124;1088;1051;1018;982;948;922;896;873;854;837;824;814;805;797;791;793;794;801;793;821;872;923;1008;1138;1302;1465;1655;1856;2079;2294;2488;2642;2767;2861;2937;3001;3056;3103;3131;3153;3179;3174;3144;3149;3168;3176;3186;3206;3252;3214;3150;3117;3067;2978;2887;2774;2638;2497;2349;2227;2138;2060;1976;1896;1833;1789;1771;1762;1763;1770;1781;1790;1799;1808;1812;1817;1816;1811;1806;1799;1793;1787;1781;1776;1771;1767;1762;1760;1758;1756;1755
COMMAND 1 SAMPLE 29
Accel X : 3098;3142;3195;3290;3344;3436;3548;3634;3706;3766;3837;3841;3910;3983;4021;4048;3944;3821;3664;3427;3205;3044;2879;2730;2610;2478;2313;2166;2079;1979;1846;1742;1661;1550;1378;1071;768;527;463;404;263;22;18;19;20;20;22;22;25;26;31;271;486;681;883;1067;1229;1437;1691;1888;1984;2034;2009;1959;1904;1911;2006;2213;2448;2582;2650;2664;2768;3008;3590;4080;4077;4077;4075;3559;2703;2279;2518;3057;3595;3872;3884;3853;3877;3759;3485;3171;2913;2810;2735;2741;2813;2949;3080;3084
Accel Y : 2123;2136;2117;2100;2100;2103;2140;2144;2170;2231;2286;2342;2427;2505;2600;2671;2760;2767;2741;2714;2701;2639;2598;2553;2504;2532;2537;2567;2615;2686;2727;2771;2792;2757;2741;2744;2738;2719;2645;2641;2601;2516;2451;2282;2175;2239;2254;2052;2103;2154;2198;2207;2222;2229;2283;2268;2227;2193;2140;2084;1996;1951;1979;2051;2146;2343;2575;2721;2831;2872;2986;3233;3552;3888;4073;4085;3897;3284;2734;2313;1880;1656;2023;2336;2171;2027;2131;2246;2241;2196;2183;2227;2215;2188;2220;2156;2125;2148;2195;2173
Accel Z : 1878;1812;1784;1738;1735;1697;1629;1646;1629;1546;1476;1409;1350;1352;1375;1444;1500;1530;1516;1549;1628;1629;1682;1789;1847;1920;1907;1893;1853;1823;1722;1630;1613;1631;1682;1736;1658;1568;1751;1681;1713;1567;1399;1196;1017;1018;1080;986;907;935;1113;1300;1437;1580;1660;1731;1784;1825;1873;1909;1907;1954;1922;1911;1939;1869;1904;1970;1972;1993;2031;1968;1916;1847;1824;1999;2378;2142;1470;579;481;1382;2110;2260;2213;2178;2138;2108;2063;2004;1914;1866;1873;1924;1955;1946;1945;1924;1911;1897
Gyro X : 1828;1907;1979;2036;2079;2099;2075;2016;1943;1840;1754;1752;1805;1856;1901;1969;2013;2022;2069;2173;2275;2340;2387;2445;2540;2610;2673;2722;2773;2776;2791;2857;2879;2969;3137;3288;3198;2737;2181;1821;1754;1794;1849;1980;1928;1751;1508;1295;1161;1080;1032;991;916;898;1025;1219;1372;1124;716;656;894;1924;2771;2767;2738;2596;2552;2504;2218;1868;1483;1173;1149;1221;1347;1519;1653;1739;1843;1940;1984;2000;2018;2031;2034;2036;2035;2024;2018;2022;2001;1973;1936;1881;1836;1810;1792;1797;1808;1810
Gyro Y : 1711;1724;1739;1768;1795;1819;1841;1854;1867;1880;1881;1837;1818;1819;1841;1874;1918;1962;1983;1983;1974;1953;1920;1863;1797;1744;1677;1613;1552;1486;1411;1306;1227;1194;1064;900;821;862;943;1035;1147;1280;1471;1689;1906;2078;2197;2260;2285;2285;2265;2246;2195;2144;2117;2046;2000;1934;1937;1990;1567;1259;1478;1715;1907;1877;1723;1598;1518;1486;1496;1541;1591;1598;1598;1621;1649;1664;1662;1656;1648;1639;1634;1634;1643;1652;1661;1661;1655;1646;1645;1648;1645;1636;1632;1633;1634;1638;1641;1647
Gyro Z : 1897;1882;1865;1846;1822;1793;1755;1702;1643;1579;1506;1427;1350;1264;1182;1095;997;897;797;700;612;531;458;403;356;331;319;314;312;310;323;351;394;447;540;657;808;979;1141;1312;1506;1763;2046;2353;2634;2872;3065;3218;3339;3431;3496;3550;3607;3655;3667;3675;3633;3636;3639;3680;3689;3648;3593;3487;3271;3059;2812;2562;2339;2141;1997;1887;1802;1733;1687;1676;1682;1694;1712;1735;1755;1775;1794;1811;1826;1833;1835;1834;1832;1825;1816;1806;1798;1784;1773;1767;1761;1757;1753;1749
COMMAND 1 SAMPLE 30
Accel X : 3036;3087;3130;3193;3239;3286;3322;3311;3276;3288;3439;3657;3778;3764;3790;3775;3728;3691;3848;3862;3723;3496;3313;3160;2912;2626;2398;2179;1946;1759;1464;1174;1072;909;516;16;15;16;18;20;19;21;22;24;24;26;26;29;28;116;434;855;1285;1739;2129;2373;2337;2182;2171;2829;4081;4080;4081;4013;3922;4079;4078;4065;3448;3139;3139;3422;3649;3698;3596;3432;3267;3166;3043;2958;2873;2864;2843;2843;2897;2887;2884;2875;2849;2825;2795;2757;2731;2701;2747;2775;2780;2778;2781;2761
Accel Y : 2345;2358;2337;2291;2288;2356;2399;2478;2524;2600;2750;2846;2848;2912;2950;2954;2904;2895;2914;2891;2817;2758;2748;2682;2676;2689;2738;2732;2789;2967;3229;3365;3331;3383;3485;3397;3095;2651;2392;2394;2477;2436;2607;2471;2542;2672;2851;2908;2967;3028;3011;3009;2985;2863;2755;2667;2772;3008;3363;4074;4085;4082;4046;3722;4076;4085;3825;3271;2942;2786;2626;2555;2532;2530;2471;2440;2429;2414;2389;2362;2316;2268;2180;2117;2045;2054;2079;2113;2136;2161;2172;2173;2211;2224;2223;2211;2207;2227;2216;2211
Accel Z : 1937;1959;1986;2027;2032;2018;2019;1933;1849;1760;1738;1663;1608;1583;1526;1524;1499;1466;1425;1511;1593;1605;1682;1714;1780;1787;1753;1698;1606;1536;1607;1555;1358;1202;1008;732;346;102;128;399;597;648;804;814;707;688;732;864;1045;1214;1366;1531;1694;1753;1862;1913;1580;1423;1239;873;1043;2795;2035;2111;1989;2241;2382;2106;1800;1941;2144;2318;2439;2436;2387;2358;2326;2253;2226;2161;2047;2051;2116;2173;2189;2273;2268;2211;2177;2150;2152;2143;2121;2098;2093;2094;2072;2057;2065;2048
Gyro X : 1840;1835;1823;1769;1699;1613;1533;1459;1411;1401;1434;1521;1599;1635;1635;1646;1696;1777;1878;1973;2066;2144;2165;2155;2151;2162;2210;2265;2295;2293;2254;2184;2084;1965;1828;1725;1615;1481;1624;1951;2234;2587;2678;2258;1882;1817;1842;1735;1544;1436;1476;1582;1646;1775;1873;1922;2008;2063;2092;2042;1928;1879;1880;1978;2155;2255;2290;2254;2178;2056;1901;1734;1583;1482;1443;1450;1481;1498;1534;1603;1698;1776;1826;1851;1865;1863;1845;1825;1812;1806;1810;1823;1840;1854;1857;1845;1832;1815;1809;1812
Gyro Y : 1663;1662;1666;1670;1679;1689;1705;1723;1747;1767;1791;1831;1874;1922;1959;1993;2026;2040;2041;2031;2009;1983;1955;1919;1877;1847;1818;1780;1733;1701;1677;1652;1630;1604;1586;1546;1527;1603;1671;1663;1616;1506;1450;1502;1548;1551;1547;1586;1641;1662;1659;1669;1712;1725;1706;1734;1730;1741;1748;1773;1814;1833;1829;1803;1758;1723;1695;1676;1639;1596;1561;1530;1510;1510;1531;1569;1626;1672;1701;1721;1732;1733;1729;1719;1703;1689;1678;1670;1669;1674;1679;1683;1684;1685;1687;1684;1685;1683;1683;1682
Gyro Z : 1846;1842;1840;1829;1812;1783;1742;1689;1624;1550;1475;1405;1326;1242;1146;1045;944;848;758;674;597;533;479;438;412;399;393;394;393;388;382;373;371;373;393;435;504;634;813;1013;1260;1574;1922;2266;2541;2732;2856;2953;3038;3103;3152;3193;3231;3247;3257;3272;3281;3284;3285;3283;3268;3260;3240;3207;3174;3130;3070;3000;2934;2859;2772;2675;2565;2448;2323;2193;2070;1962;1883;1841;1827;1827;1837;1851;1866;1880;1888;1887;1877;1861;1843;1823;1806;1792;1782;1775;1772;1768;1769;1771
COMMAND 1 SAMPLE 31
Accel X : 3788;3955;4047;3979;3903;3769;3687;3534;3390;3182;2969;2798;2666;2540;2444;2308;2237;2146;2092;2030;1946;1868;1755;1644;1516;1350;1075;636;103;18;17;19;100;163;21;20;22;23;23;32;154;377;674;933;1163;1359;1481;1643;1712;1832;1898;1956;2037;2069;2066;2110;2090;2106;2122;2220;2355;2639;2984;3157;3282;3457;3624;3712;3771;3932;4076;4073;3848;3371;3023;2940;3212;3544;3712;3749;3737;3712;3626;3441;3242;3050;2854;2741;2711;2702;2755;2820;2855;2869;2855;2841;2819;2821;2802;2739
Accel Y : 2415;2470;2553;2618;2718;2692;2680;2615;2514;2456;2378;2328;2247;2152;2127;2092;2113;2127;2161;2221;2286;2348;2426;2498;2536;2594;2592;2565;2474;2193;2166;2239;2400;2483;2231;1995;2077;2159;2159;2215;2200;2235;2260;2228;2187;2161;2174;2172;2138;2065;2065;2061;2073;2056;2109;2166;2255;2312;2337;2464;2635;2849;2968;3036;3132;3229;3241;3199;3178;3180;3096;2852;2532;2268;2037;2057;2213;2238;2179;2144;2201;2236;2257;2233;2292;2313;2321;2270;2251;2215;2208;2239;2239;2249;2241;2264;2253;2251;2257;2227
Accel Z : 1594;1575;1554;1530;1554;1570;1608;1588;1621;1644;1655;1675;1712;1754;1815;1821;1823;1839;1871;1841;1825;1786;1791;1737;1707;1779;1788;1650;1683;1598;1426;1568;1733;1829;1661;1224;1067;1087;1208;1249;1227;1289;1393;1455;1536;1567;1678;1770;1830;1879;1933;1925;1962;1991;1948;1915;1830;1806;1769;1802;1909;2036;2106;2055;1986;1973;1908;1724;1567;1478;1532;1481;1318;1172;1266;1645;1929;2044;1983;1951;1905;1852;1814;1782;1756;1761;1827;1902;1924;1948;1965;1993;1969;1937;1912;1932;1945;1950;1931;1911
Gyro X : 1792;1763;1735;1716;1708;1705;1692;1678;1661;1638;1615;1599;1587;1588;1593;1613;1647;1700;1775;1855;1913;1938;1979;2016;2083;2169;2234;2282;2331;2398;2460;2535;2607;2664;2699;2719;2727;2741;2746;2727;2635;2787;2914;3060;2731;2606;3013;2672;1904;1387;1078;941;887;798;729;710;790;987;1230;1447;1620;1743;1835;1881;1891;1872;1845;1821;1808;1803;1791;1753;1681;1597;1514;1426;1325;1217;1101;1007;972;1020;1156;1329;1500;1654;1809;1963;2114;2269;2373;2400;2303;2126;1871;1706;1646;1670;1731;1782
Gyro Y : 1690;1696;1708;1722;1737;1757;1781;1800;1821;1836;1856;1872;1893;1918;1941;1970;1992;2007;2016;2024;2018;2015;2005;1995;1984;1968;1949;1924;1894;1860;1823;1785;1748;1705;1656;1606;1548;1487;1415;1331;1236;1212;1132;1076;1142;1450;1701;1936;2091;2136;2147;2136;2107;2067;2004;1946;1897;1849;1819;1795;1782;1776;1775;1784;1797;1807;1815;1820;1821;1819;1819;1818;1814;1807;1796;1792;1790;1779;1752;1718;1662;1602;1554;1516;1489;1468;1451;1449;1448;1442;1441;1447;1465;1503;1553;1582;1600;1618;1644;1661
Gyro Z : 1780;1760;1740;1713;1681;1644;1600;1545;1486;1419;1349;1272;1200;1128;1057;989;935;888;848;815;785;765;759;754;758;767;773;778;783;789;793;794;794;788;783;783;791;808;837;879;916;1005;1095;1201;1295;1507;1879;2125;2229;2311;2403;2433;2424;2427;2437;2463;2488;2505;2527;2538;2548;2558;2565;2572;2582;2589;2600;2614;2627;2640;2649;2658;2670;2674;2688;2696;2705;2713;2719;2732;2746;2767;2778;2787;2788;2783;2766;2730;2685;2616;2530;2427;2335;2253;2171;2088;2011;1947;1903;1875
COMMAND 1 SAMPLE 32
Accel X : 2943;2975;3044;3106;3182;3217;3284;3330;3383;3425;3520;3599;3619;3648;3691;3650;3643;3572;3507;3361;3210;3008;2900;2796;2708;2561;2392;2249;2139;2078;2069;2025;1948;1851;1775;1597;1449;1211;837;472;216;30;19;19;19;173;227;23;23;45;524;724;723;838;972;1181;1494;1727;1807;1769;1724;1733;1701;1650;1674;1695;1730;1799;1864;1876;1924;1928;1958;2016;2088;2134;2189;2260;2320;2461;2657;2928;3095;3139;3140;3201;3292;3404;3561;3687;3695;3454;3080;2813;2857;3167;3442;3561;3504;3437
Accel Y : 2167;2153;2140;2157;2154;2133;2145;2184;2210;2236;2290;2300;2393;2497;2586;2730;2867;2883;2781;2658;2603;2531;2455;2350;2283;2193;2137;2108;2112;2108;2065;2102;2112;2143;2207;2278;2308;2331;2336;2310;2147;1979;1872;1892;2196;2208;1601;1567;1710;1948;1937;1709;1643;1732;1832;1871;1876;1834;1739;1667;1645;1589;1569;1571;1560;1560;1579;1631;1655;1691;1702;1750;1836;1885;1887;1923;2011;2096;2175;2321;2499;2603;2652;2681;2745;2823;2807;2814;2819;2790;2683;2480;2328;2183;2153;2213;2190;2150;2125;2165
Accel Z : 1908;1843;1813;1809;1759;1700;1692;1688;1730;1747;1719;1666;1653;1571;1467;1460;1529;1512;1612;1662;1708;1746;1842;1897;1912;1950;1970;1922;1935;1961;1940;1913;1862;1818;1795;1790;1772;1775;1713;1456;1599;1295;817;129;80;900;976;640;1095;1106;986;975;991;1056;1274;1561;1898;2129;2247;2232;2195;2097;2011;1911;1856;1836;1841;1891;1955;2003;2039;2010;1971;1949;1962;1907;1876;1871;1891;1865;1867;1945;1941;1928;1907;1867;1839;1829;1913;1954;1903;1715;1549;1505;1659;1841;1907;1964;1979;1962
Gyro X : 1726;1706;1733;1792;1869;1935;1966;1944;1905;1872;1841;1835;1815;1830;1867;1918;1989;2059;2135;2213;2293;2345;2400;2439;2491;2492;2437;2348;2242;2129;2063;2031;2025;2008;1983;1962;1950;1925;1895;1869;1837;1794;1738;1684;1646;1626;1625;1655;1685;1711;1709;1687;1687;1693;1694;1716;1738;1704;1583;1349;1075;922;1112;1552;1972;2250;2384;2369;2268;2163;2070;1970;1848;1729;1662;1621;1604;1631;1691;1750;1806;1843;1856;1864;1866;1861;1866;1859;1835;1822;1819;1821;1840;1868;1892;1922;1958;1985;1996;1991
Gyro Y : 1762;1775;1785;1795;1803;1807;1807;1805;1804;1803;1805;1808;1815;1822;1819;1819;1808;1799;1788;1778;1755;1746;1718;1693;1659;1631;1602;1575;1554;1540;1539;1542;1535;1538;1540;1544;1558;1575;1594;1611;1632;1654;1668;1680;1684;1688;1695;1704;1720;1747;1770;1766;1774;1789;1785;1785;1788;1802;1816;1830;1812;1783;1734;1679;1683;1700;1691;1698;1717;1709;1683;1653;1625;1609;1601;1604;1621;1639;1654;1668;1674;1679;1673;1662;1655;1646;1642;1646;1654;1667;1676;1684;1693;1696;1695;1694;1690;1687;1680;1676
Gyro Z : 1330;1278;1222;1169;1116;1065;1018;975;936;903;873;845;819;797;781;772;766;766;768;770;780;790;808;828;854;881;915;955;996;1052;1131;1215;1297;1389;1482;1587;1701;1820;1954;2088;2220;2340;2447;2536;2613;2680;2745;2803;2856;2912;2954;2974;3000;3008;3023;3036;3056;3079;3102;3127;3152;3170;3173;3171;3141;3069;2949;2809;2659;2495;2329;2171;2036;1935;1850;1789;1751;1726;1711;1705;1703;1706;1707;1711;1716;1719;1730;1735;1742;1752;1757;1759;1761;1760;1755;1757;1757;1758;1756;1758
COMMAND 1 SAMPLE 33
Accel X : 3305;3361;3375;3400;3422;3444;3560;3683;3779;3864;3865;3835;3730;3632;3601;3524;3423;3222;2935;2678;2447;2287;2189;2125;2086;2004;1937;1864;1819;1723;1568;1353;1025;575;194;30;20;19;18;20;19;20;21;24;24;220;475;574;680;840;957;1177;1444;1622;1766;1806;1859;1866;1843;1832;1871;1898;1960;2013;2067;2139;2202;2298;2367;2405;2418;2383;2417;2512;2628;2802;3039;3310;3697;4079;4075;4075;3783;3305;2887;2804;3010;3263;3500;3666;3857;3940;3752;3515;3192;2941;2804;2708;2757;2842
Accel Y : 2214;2205;2193;2206;2260;2291;2324;2373;2435;2523;2561;2572;2577;2544;2575;2571;2537;2407;2333;2237;2171;2131;2142;2141;2171;2187;2261;2315;2383;2470;2483;2514;2536;2479;2376;2174;2133;2208;2237;2420;2206;1951;1953;1988;2063;2101;2092;2076;2005;2017;2039;2046;2006;1944;1888;1833;1780;1748;1731;1719;1797;1860;1919;1959;2005;2049;2091;2153;2228;2349;2485;2596;2691;2829;2964;3101;3216;3231;3194;3183;3023;2708;2401;2200;2088;2138;2238;2226;2204;2188;2236;2242;2271;2279;2265;2306;2300;2307;2311;2291
Accel Z : 1817;1783;1737;1764;1734;1678;1658;1591;1579;1542;1496;1480;1488;1490;1533;1613;1722;1804;1854;1894;1872;1834;1805;1831;1812;1791;1788;1790;1791;1801;1819;1760;1746;1540;1615;1485;1323;1278;1290;1263;1281;1120;1147;1282;1304;1294;1258;1234;1250;1287;1411;1608;1788;1891;1969;1978;1959;1954;1972;1946;1925;1915;1877;1869;1918;2001;2050;2125;2138;2147;2130;2125;2128;2055;1997;1833;1672;1541;1475;1568;1643;1544;1413;1273;1389;1680;1848;1890;1882;1839;1807;1796;1800;1816;1847;1905;1958;1989;2020;2013
Gyro X : 2020;1901;1780;1647;1553;1540;1625;1657;1678;1795;1942;2090;2259;2395;2515;2598;2621;2617;2615;2604;2608;2628;2653;2673;2694;2703;2664;2614;2544;2494;2431;2348;2287;2219;2078;1914;1746;1645;1642;1725;1871;2024;2042;1910;1707;1487;1282;1111;979;872;834;841;920;1166;1264;1162;955;863;1103;1618;2040;2278;2390;2409;2359;2293;2165;2003;1808;1583;1428;1377;1398;1472;1572;1674;1767;1843;1889;1933;1955;1960;1956;1931;1911;1886;1870;1874;1883;1900;1930;1969;2012;2056;2092;2118;2135;2133;2123;2104
Gyro Y : 1699;1696;1700;1700;1707;1715;1740;1795;1869;1952;2031;2084;2113;2123;2106;2070;2015;1946;1879;1805;1735;1661;1585;1522;1451;1390;1332;1277;1254;1250;1241;1228;1220;1219;1231;1258;1295;1330;1367;1411;1463;1528;1612;1704;1790;1851;1886;1899;1893;1870;1834;1790;1733;1686;1627;1593;1552;1514;1470;1445;1456;1533;1565;1551;1553;1544;1530;1506;1486;1476;1492;1531;1575;1614;1649;1671;1683;1686;1687;1684;1679;1678;1676;1675;1678;1684;1691;1701;1710;1719;1725;1729;1732;1734;1733;1732;1732;1729;1726;1719
Gyro Z : 1861;1793;1715;1633;1554;1469;1389;1310;1225;1141;1048;952;858;772;699;640;594;561;543;534;536;543;558;574;599;623;653;686;711;748;797;858;931;1019;1109;1199;1301;1414;1542;1691;1867;2073;2293;2512;2717;2904;3069;3216;3338;3431;3487;3519;3515;3472;3460;3463;3451;3429;3406;3381;3338;3246;3094;2917;2733;2545;2378;2221;2089;1989;1914;1860;1820;1791;1769;1751;1737;1729;1727;1730;1732;1737;1746;1750;1755;1760;1767;1770;1767;1767;1764;1763;1760;1756;1754;1755;1755;1753;1758;1759
COMMAND 1 SAMPLE 34
Accel X : 3114;3034;2995;2913;2833;2782;2702;2600;2523;2444;2358;2254;2207;2175;2125;2071;1963;1850;1766;1642;1506;1342;1311;1260;1197;1114;921;895;825;763;670;625;535;369;238;166;152;143;199;312;403;453;512;674;924;1152;1327;1475;1614;1768;1832;1947;1943;1981;2153;2318;2493;2861;3548;3910;3933;3791;3608;3628;3823;3950;3899;3739;3481;3339;3249;3249;3222;3192;3118;3063;3024;2973;2958;2935;2892;2862;2812;2797;2835;2825;2783;2817;2824;2836;2851;2845;2843;2819;2817;2791;2794;2801;2767;2761
Accel Y : 2449;2444;2431;2413;2363;2348;2350;2369;2342;2351;2333;2307;2259;2244;2235;2194;2167;2184;2160;2160;2138;2132;2074;2030;1959;1902;1817;1749;1733;1703;1674;1668;1628;1599;1511;1483;1479;1485;1502;1469;1457;1445;1473;1487;1503;1529;1533;1557;1590;1588;1759;1777;1896;2102;2234;2329;2484;2665;2875;2878;2945;2919;2870;2803;2705;2575;2454;2361;2333;2294;2269;2228;2184;2159;2095;2088;2086;2062;2035;2043;2050;2027;2025;2027;2016;2051;2040;2015;2029;2043;2026;2021;2043;2034;2028;2042;2059;2024;2015;2028
Accel Z : 1907;1865;1854;1836;1833;1861;1890;1892;1879;1816;1750;1765;1776;1802;1826;1850;1810;1772;1736;1699;1642;1605;1589;1614;1559;1563;1540;1539;1541;1548;1560;1553;1527;1510;1485;1525;1567;1615;1671;1709;1690;1705;1710;1733;1804;1829;1888;1877;1889;2006;1987;1999;1987;1932;1801;1788;1826;1979;2136;2051;1914;1728;1621;1672;1836;2027;2150;2136;2034;1933;1927;1952;2049;2109;2104;2138;2105;2097;2112;2105;2070;2076;2069;2096;2094;2106;2114;2102;2107;2097;2099;2113;2099;2111;2091;2070;2064;2089;2092;2083
Gyro X : 1863;1882;1908;1920;1925;1926;1929;1937;1942;1947;1954;1964;1960;1988;2004;2039;2097;2145;2192;2215;2247;2254;2239;2216;2192;2151;2118;2089;2075;2059;2031;2010;1987;1960;1940;1926;1939;1951;1955;1939;1898;1852;1801;1764;1742;1718;1698;1687;1691;1705;1717;1724;1731;1733;1728;1708;1687;1672;1671;1667;1661;1634;1598;1564;1516;1494;1471;1434;1361;1299;1272;1297;1403;1664;1940;2112;2204;2186;2110;2045;1975;1933;1890;1842;1817;1810;1814;1818;1817;1811;1808;1797;1795;1794;1802;1805;1804;1804;1801;1809
Gyro Y : 1657;1667;1669;1670;1672;1664;1659;1657;1655;1657;1656;1650;1655;1651;1658;1664;1659;1658;1648;1641;1633;1624;1619;1614;1606;1611;1608;1607;1605;1600;1601;1599;1599;1599;1597;1594;1595;1595;1596;1602;1611;1625;1636;1651;1666;1689;1716;1744;1772;1798;1817;1835;1847;1851;1851;1856;1855;1852;1852;1858;1867;1863;1867;1866;1871;1855;1837;1819;1810;1797;1780;1742;1693;1649;1618;1618;1642;1660;1680;1695;1701;1701;1692;1682;1669;1655;1645;1638;1635;1633;1635;1637;1643;1644;1650;1650;1652;1657;1659;1660
Gyro Z : 1253;1213;1174;1136;1101;1076;1056;1041;1030;1022;1014;1012;1007;1006;1008;1008;1013;1020;1030;1039;1054;1067;1082;1102;1124;1149;1178;1211;1248;1288;1333;1386;1445;1508;1578;1653;1736;1824;1913;2001;2079;2157;2220;2276;2324;2366;2406;2443;2481;2517;2547;2576;2604;2616;2638;2655;2667;2684;2701;2721;2737;2753;2769;2790;2805;2814;2818;2819;2821;2818;2800;2783;2747;2696;2636;2563;2483;2394;2306;2227;2150;2079;2011;1944;1892;1844;1809;1784;1764;1753;1746;1744;1743;1740;1742;1739;1739;1737;1734;1732
COMMAND 1 SAMPLE 35
Accel X : 3217;3165;3132;3085;2955;2846;2767;2720;2593;2516;2461;2388;2316;2250;2172;2070;1977;1846;1785;1720;1714;1593;1479;1368;1234;1048;828;610;575;482;427;175;20;20;21;22;24;23;134;321;494;663;818;963;1106;1227;1399;1546;1703;1857;2022;2047;2134;2122;2089;2160;2360;2623;2928;3143;3437;3639;3611;3624;3614;3622;3609;3617;3627;3589;3498;3415;3332;3362;3326;3299;3281;3235;3187;3185;3148;3116;3019;2961;2927;2917;2878;2839;2785;2818;2827;2842;2852;2854;2839;2845;2793;2796;2804;2814
Accel Y : 2343;2327;2341;2333;2314;2287;2287;2300;2260;2222;2159;2169;2174;2182;2184;2222;2206;2182;2151;2160;2151;2164;2114;2119;2075;2044;1947;1898;1873;1882;1859;1837;1759;1693;1647;1658;1665;1653;1673;1664;1645;1640;1609;1620;1615;1636;1683;1682;1724;1769;1797;1899;1953;2035;2137;2282;2456;2566;2654;2694;2746;2764;2751;2740;2760;2699;2624;2559;2452;2421;2383;2367;2324;2317;2297;2251;2232;2169;2170;2133;2111;2085;2085;2054;2045;2047;2067;2047;2068;2047;2023;2013;2036;2039;2009;2029;2033;2004;2023;2029
Accel Z : 1721;1700;1732;1762;1722;1743;1766;1747;1733;1769;1763;1752;1758;1723;1759;1749;1733;1714;1729;1713;1692;1650;1655;1607;1616;1622;1619;1582;1701;1594;1556;1465;1351;1282;1280;1395;1517;1583;1669;1672;1714;1662;1665;1665;1700;1731;1690;1772;1794;1849;1896;1940;1948;1933;1892;1818;1750;1735;1812;1830;1865;1874;1784;1721;1695;1680;1729;1685;1716;1705;1665;1627;1623;1640;1645;1669;1710;1721;1719;1743;1763;1777;1775;1783;1845;1844;1857;1845;1855;1876;1935;1949;1966;1962;1960;1948;1933;1906;1940;1934
Gyro X : 1799;1827;1858;1901;1934;1958;1970;1970;1965;1956;1957;1972;2025;2090;2142;2177;2188;2221;2241;2265;2285;2309;2305;2298;2281;2266;2264;2242;2208;2174;2153;2145;2128;2055;2011;1979;1943;1898;1853;1852;1868;1868;1857;1833;1796;1760;1709;1659;1638;1636;1643;1643;1643;1640;1637;1643;1645;1645;1640;1646;1628;1610;1556;1462;1379;1300;1291;1489;1799;2017;2109;2091;2035;2015;1991;1973;1950;1917;1882;1836;1788;1762;1756;1769;1793;1819;1844;1862;1876;1886;1887;1882;1871;1861;1848;1843;1842;1849;1861;1868
Gyro Y : 1691;1698;1705;1709;1714;1723;1731;1738;1748;1752;1753;1758;1755;1753;1747;1733;1723;1699;1677;1659;1635;1607;1595;1575;1558;1555;1551;1546;1538;1536;1531;1529;1528;1532;1542;1560;1574;1592;1605;1615;1626;1632;1640;1651;1664;1676;1689;1703;1717;1732;1748;1766;1774;1781;1789;1792;1792;1792;1804;1819;1829;1841;1844;1842;1823;1802;1775;1758;1728;1738;1755;1765;1776;1765;1744;1726;1700;1675;1644;1623;1611;1605;1609;1621;1631;1642;1648;1652;1655;1655;1654;1657;1660;1666;1671;1674;1677;1675;1674;1674
Gyro Z : 1428;1378;1330;1283;1236;1192;1153;1113;1079;1043;1008;977;947;919;898;875;857;846;838;837;836;842;848;858;876;896;919;945;976;1011;1053;1096;1140;1203;1289;1387;1485;1593;1702;1812;1924;2032;2137;2237;2325;2404;2472;2538;2594;2645;2687;2728;2756;2783;2807;2827;2848;2863;2882;2900;2914;2936;2955;2977;2995;3005;3009;3000;2975;2919;2843;2737;2620;2495;2374;2252;2134;2030;1938;1863;1807;1767;1743;1734;1727;1728;1731;1734;1741;1748;1756;1764;1768;1775;1779;1781;1784;1785;1783;1786
COMMAND 1 SAMPLE 36
Accel X : 3115;3137;3074;3046;2987;2892;2819;2756;2659;2543;2475;2403;2367;2287;2177;2071;2016;1967;1881;1805;1675;1567;1419;1275;1151;1008;807;584;568;543;472;347;217;90;26;23;24;54;169;250;245;389;648;892;1090;1270;1427;1557;1722;1816;1835;1916;2023;2153;2505;3162;3515;3405;3315;3321;3347;3326;3407;3636;3899;3993;3913;3754;3578;3508;3408;3336;3271;3215;3157;3124;3112;3067;2998;3018;2955;2880;2801;2786;2812;2844;2873;2884;2831;2877;2867;2865;2832;2832;2808;2824;2812;2793;2787;2784
Accel Y : 2248;2255;2256;2295;2244;2236;2277;2220;2182;2110;2068;2075;2093;2059;2039;2034;2048;2030;2033;2059;2022;2016;2023;1986;1955;1899;1843;1798;1715;1713;1697;1673;1676;1655;1681;1688;1727;1780;1809;1836;1737;1775;1760;1731;1687;1680;1687;1731;1739;1724;1864;1888;2055;2212;2325;2535;2511;2437;2619;2863;3003;2991;3018;2970;2818;2655;2498;2371;2306;2306;2290;2251;2233;2199;2130;2122;2119;2101;2088;2087;2078;2061;2063;2048;2082;2046;2062;2051;2040;2023;2034;2018;2034;2021;1994;2019;2019;2003;2013;1999
Accel Z : 1829;1834;1839;1837;1833;1795;1736;1771;1791;1794;1764;1779;1756;1791;1836;1772;1800;1761;1745;1729;1735;1717;1688;1684;1653;1687;1681;1650;1838;1812;1779;1810;1788;1782;1803;1785;1808;1838;1849;1832;1759;1738;1801;1853;1882;1861;1913;1816;1858;1882;1840;1786;1743;1667;1655;1829;1996;1953;1702;1403;1236;1267;1431;1579;1741;1805;1710;1603;1524;1483;1498;1519;1604;1654;1688;1704;1700;1681;1703;1752;1742;1749;1795;1816;1816;1817;1812;1826;1843;1869;1889;1920;1879;1876;1875;1867;1870;1842;1845;1837
Gyro X : 1745;1706;1676;1666;1714;1829;1932;1994;1996;1952;1925;1896;1878;1893;1922;1985;2061;2098;2131;2128;2128;2123;2126;2152;2185;2223;2260;2303;2316;2302;2257;2201;2137;2065;1981;1901;1832;1817;1836;1865;1914;1987;2081;2117;2037;1916;1807;1684;1553;1483;1455;1439;1401;1327;1232;1093;896;739;855;1241;1816;2301;2359;2190;2018;1894;1885;1944;2005;2031;2037;1990;1898;1793;1704;1642;1585;1551;1534;1565;1637;1720;1805;1875;1916;1936;1932;1921;1903;1896;1892;1888;1892;1905;1915;1922;1909;1900;1899;1888
Gyro Y : 1699;1687;1673;1666;1659;1654;1648;1658;1658;1668;1678;1687;1690;1684;1673;1662;1643;1626;1610;1598;1585;1576;1568;1558;1545;1531;1518;1501;1492;1477;1467;1465;1464;1466;1473;1486;1496;1510;1527;1538;1550;1570;1583;1607;1643;1688;1726;1757;1780;1801;1822;1842;1860;1864;1819;1771;1723;1642;1554;1503;1523;1586;1687;1757;1781;1786;1785;1784;1773;1744;1704;1656;1618;1593;1583;1578;1587;1605;1623;1636;1646;1651;1653;1650;1651;1657;1659;1665;1669;1672;1676;1674;1673;1673;1673;1673;1675;1674;1675;1673
Gyro Z : 1663;1610;1557;1504;1453;1402;1352;1304;1253;1200;1150;1098;1047;998;950;908;872;845;821;802;789;784;785;792;801;815;834;859;887;922;956;998;1041;1092;1148;1205;1270;1343;1425;1517;1625;1745;1885;2035;2201;2374;2547;2718;2876;3017;3135;3232;3305;3359;3334;3340;3330;3302;3283;3267;3236;3191;3114;2975;2844;2726;2626;2527;2417;2310;2211;2111;2026;1958;1908;1865;1833;1803;1779;1763;1751;1743;1742;1744;1746;1755;1761;1768;1775;1781;1789;1791;1795;1797;1796;1797;1797;1795;1795;1794
COMMAND 1 SAMPLE 37
Accel X : 3267;3336;3373;3461;3574;3631;3548;3451;3369;3334;3355;3314;3332;3288;3288;3226;3058;2898;2763;2641;2467;2341;2222;2128;2029;1972;1899;1734;1568;1394;1239;1141;1054;919;802;698;643;550;354;164;37;23;22;23;24;23;24;26;25;146;472;828;1169;1436;1691;1913;2133;2471;3266;4077;4078;4076;3688;3535;3629;3855;4072;4075;4072;3954;3799;3600;3406;3312;3280;3248;3216;3173;3177;3179;3169;3125;3093;2991;2926;2878;2839;2829;2841;2838;2836;2838;2855;2836;2813;2794;2791;2815;2827;2789
Accel Y : 2288;2246;2289;2249;2278;2284;2250;2264;2299;2291;2290;2317;2327;2315;2281;2310;2232;2185;2175;2182;2175;2142;2130;2149;2174;2199;2228;2273;2255;2271;2199;2125;2102;2018;1978;1936;1885;1848;1856;1801;1823;1876;1777;1783;1801;1912;1959;2080;2162;2239;2286;2252;2248;2279;2369;2383;2580;2760;2939;3019;3059;2878;2828;2983;3082;3025;2889;2663;2514;2426;2318;2270;2256;2229;2229;2203;2192;2122;2101;2113;2085;2077;2091;2063;2040;2037;2012;2037;2046;2042;2045;2057;2032;2020;2031;2009;2040;1998;2022;2010
Accel Z : 2151;2111;2071;2049;2008;1956;1920;1859;1853;1809;1773;1775;1828;1768;1766;1794;1807;1810;1795;1790;1802;1792;1807;1815;1801;1762;1737;1790;1743;1671;1625;1568;1557;1513;1545;1541;1614;1668;1683;1744;1774;1838;1813;1700;1656;1619;1580;1591;1664;1805;1883;1966;1932;1797;1729;1612;1501;1460;1556;1670;1732;1685;1294;1120;1252;1575;1872;2074;2116;2112;2031;1949;1917;1926;1919;1953;1954;1959;1974;1984;1971;1924;1864;1855;1822;1855;1860;1919;1908;1883;1904;1897;1905;1939;1924;1929;1935;1958;1919;1943
Gyro X : 1745;1706;1676;1666;1714;1829;1932;1994;1996;1952;1925;1896;1878;1893;1922;1985;2061;2098;2131;2128;2128;2123;2126;2152;2185;2223;2260;2303;2316;2302;2257;2201;2137;2065;1981;1901;1832;1817;1836;1865;1914;1987;2081;2117;2037;1916;1807;1684;1553;1483;1455;1439;1401;1327;1232;1093;896;739;855;1241;1816;2301;2359;2190;2018;1894;1885;1944;2005;2031;2037;1990;1898;1793;1704;1642;1585;1551;1534;1565;1637;1720;1805;1875;1916;1936;1932;1921;1903;1896;1892;1888;1892;1905;1915;1922;1909;1900;1899;1888
Gyro Y : 1699;1687;1673;1666;1659;1654;1648;1658;1658;1668;1678;1687;1690;1684;1673;1662;1643;1626;1610;1598;1585;1576;1568;1558;1545;1531;1518;1501;1492;1477;1467;1465;1464;1466;1473;1486;1496;1510;1527;1538;1550;1570;1583;1607;1643;1688;1726;1757;1780;1801;1822;1842;1860;1864;1819;1771;1723;1642;1554;1503;1523;1586;1687;1757;1781;1786;1785;1784;1773;1744;1704;1656;1618;1593;1583;1578;1587;1605;1623;1636;1646;1651;1653;1650;1651;1657;1659;1665;1669;1672;1676;1674;1673;1673;1673;1673;1675;1674;1675;1673
Gyro Z : 1663;1610;1557;1504;1453;1402;1352;1304;1253;1200;1150;1098;1047;998;950;908;872;845;821;802;789;784;785;792;801;815;834;859;887;922;956;998;1041;1092;1148;1205;1270;1343;1425;1517;1625;1745;1885;2035;2201;2374;2547;2718;2876;3017;3135;3232;3305;3359;3334;3340;3330;3302;3283;3267;3236;3191;3114;2975;2844;2726;2626;2527;2417;2310;2211;2111;2026;1958;1908;1865;1833;1803;1779;1763;1751;1743;1742;1744;1746;1755;1761;1768;1775;1781;1789;1791;1795;1797;1796;1797;1797;1795;1795;1794
COMMAND 1 SAMPLE 38
Accel X : 3267;3336;3373;3461;3574;3631;3548;3451;3369;3334;3355;3314;3332;3288;3288;3226;3058;2898;2763;2641;2467;2341;2222;2128;2029;1972;1899;1734;1568;1394;1239;1141;1054;919;802;698;643;550;354;164;37;23;22;23;24;23;24;26;25;146;472;828;1169;1436;1691;1913;2133;2471;3266;4077;4078;4076;3688;3535;3629;3855;4072;4075;4072;3954;3799;3600;3406;3312;3280;3248;3216;3173;3177;3179;3169;3125;3093;2991;2926;2878;2839;2829;2841;2838;2836;2838;2855;2836;2813;2794;2791;2815;2827;2789
Accel Y : 2288;2246;2289;2249;2278;2284;2250;2264;2299;2291;2290;2317;2327;2315;2281;2310;2232;2185;2175;2182;2175;2142;2130;2149;2174;2199;2228;2273;2255;2271;2199;2125;2102;2018;1978;1936;1885;1848;1856;1801;1823;1876;1777;1783;1801;1912;1959;2080;2162;2239;2286;2252;2248;2279;2369;2383;2580;2760;2939;3019;3059;2878;2828;2983;3082;3025;2889;2663;2514;2426;2318;2270;2256;2229;2229;2203;2192;2122;2101;2113;2085;2077;2091;2063;2040;2037;2012;2037;2046;2042;2045;2057;2032;2020;2031;2009;2040;1998;2022;2010
Accel Z : 2151;2111;2071;2049;2008;1956;1920;1859;1853;1809;1773;1775;1828;1768;1766;1794;1807;1810;1795;1790;1802;1792;1807;1815;1801;1762;1737;1790;1743;1671;1625;1568;1557;1513;1545;1541;1614;1668;1683;1744;1774;1838;1813;1700;1656;1619;1580;1591;1664;1805;1883;1966;1932;1797;1729;1612;1501;1460;1556;1670;1732;1685;1294;1120;1252;1575;1872;2074;2116;2112;2031;1949;1917;1926;1919;1953;1954;1959;1974;1984;1971;1924;1864;1855;1822;1855;1860;1919;1908;1883;1904;1897;1905;1939;1924;1929;1935;1958;1919;1943
Gyro X : 1853;1874;1896;1923;1967;1991;1993;2017;2024;2036;2042;2048;2057;2075;2113;2139;2176;2216;2234;2249;2250;2238;2194;2136;2069;2012;1968;1918;1839;1895;1925;1960;1981;1974;1956;1906;1841;1800;1764;1740;1700;1631;1588;1586;1601;1607;1600;1591;1552;1577;1544;1485;1389;1240;1076;1098;1351;1589;1696;1710;1707;1680;1614;1564;1572;1626;1698;1759;1812;1845;1863;1858;1836;1817;1809;1821;1865;1919;1973;2027;2065;2072;2052;2011;1960;1921;1895;1884;1889;1909;1925;1934;1946;1947;1943;1930;1916;1899;1878;1864
Gyro Y : 1629;1628;1624;1621;1621;1615;1611;1604;1597;1589;1583;1576;1570;1572;1569;1570;1570;1564;1560;1556;1554;1554;1553;1556;1556;1553;1553;1534;1555;1573;1580;1592;1602;1613;1623;1632;1637;1648;1657;1666;1668;1668;1669;1674;1688;1711;1735;1745;1744;1754;1748;1736;1728;1702;1686;1676;1659;1650;1661;1670;1646;1617;1585;1558;1548;1547;1541;1536;1537;1548;1564;1591;1620;1649;1675;1690;1697;1699;1695;1690;1682;1680;1678;1679;1681;1687;1688;1689;1692;1691;1694;1692;1692;1692;1687;1683;1680;1678;1680;1679
Gyro Z : 1150;1114;1084;1053;1026;1000;972;952;934;923;913;908;907;907;913;923;933;945;961;979;1001;1022;1044;1072;1103;1140;1183;1204;1284;1363;1444;1533;1634;1733;1844;1957;2076;2199;2318;2434;2539;2634;2719;2788;2851;2903;2945;2970;2967;2973;2983;2990;2999;3013;3027;3042;3049;3045;3025;2972;2908;2826;2745;2656;2556;2450;2341;2233;2132;2050;1978;1920;1868;1828;1798;1773;1759;1754;1751;1753;1755;1757;1761;1765;1769;1775;1778;1781;1785;1785;1786;1785;1781;1781;1779;1779;1778;1774;1778;1777
COMMAND 1 SAMPLE 39
Accel X : 2831;2825;2832;2810;2854;2817;2816;2847;2830;2873;2922;2990;3146;3230;3249;3321;3377;3431;3603;3873;4069;4069;4068;4069;4066;4066;4066;4064;3947;3666;3430;3142;2742;2486;2293;2121;1929;1771;1603;1319;944;689;516;362;54;17;16;19;20;19;22;22;23;25;28;159;331;542;827;1143;1272;1381;1500;1746;2051;2308;2403;2346;2256;2330;2689;3080;3163;2993;2991;3261;3605;3831;3767;3584;3519;3514;3479;3510;3561;3546;3457;3450;3454;3412;3308;3217;3073;2951;2885;2883;2891;2958;2969;2948
Accel Y : 2166;2164;2160;2147;2143;2159;2154;2131;2127;2131;2098;2042;2063;2109;2165;2172;2148;2217;2291;2332;2374;2487;2645;2727;2788;2890;2917;3003;2975;2896;2834;2789;2770;2777;2836;2973;3083;3209;3306;3241;3219;3183;3176;3181;3177;3136;2965;2774;2652;2570;2495;2503;2559;2659;2645;2606;2608;2630;2591;2567;2396;2309;2182;2133;2084;2001;1829;1795;1971;2246;2392;2463;2479;2650;3005;3178;3090;3004;2995;2869;2685;2619;2578;2478;2324;2175;2084;2154;2165;2130;2157;2167;2129;2135;2137;2150;2104;2066;2060;2078
Accel Z : 1897;1883;1908;1889;1861;1884;1885;1876;1903;1873;1867;1883;1916;1955;1899;1862;1789;1760;1695;1576;1485;1459;1357;1334;1389;1441;1510;1502;1582;1633;1706;1843;1941;1948;1911;1862;1818;1754;1834;1876;1710;1668;1589;1727;1930;1969;2072;2061;1991;1993;1937;1871;1782;1719;1654;1719;1698;1650;1760;1796;1743;1813;1856;1940;1956;1869;1780;1603;1586;1594;1702;1848;1801;1535;1349;1529;1825;1932;1761;1533;1457;1495;1586;1584;1528;1521;1517;1605;1616;1607;1538;1523;1565;1649;1719;1712;1715;1700;1706;1696
Gyro X : 1958;1984;2014;2041;2058;2055;2048;2042;2051;2062;2085;2125;2159;2204;2231;2255;2279;2288;2290;2289;2273;2265;2239;2212;2188;2172;2153;2137;2117;2185;2225;2249;2183;2060;1850;1649;1550;1521;1512;1524;1535;1541;1550;1546;1531;1513;1482;1447;1448;1456;1496;1547;1590;1621;1602;1491;1336;1203;1107;1071;1138;1333;1570;1748;1891;1984;2031;2043;2043;2044;2010;1958;1874;1797;1744;1721;1726;1757;1805;1857;1914;1983;2036;2061;2072;2084;2070;2053;2019;1988;1972;1953;1949;1943;1939;1939;1933;1924;1920;1917
Gyro Y : 1715;1711;1708;1702;1694;1684;1675;1667;1655;1646;1637;1625;1610;1599;1583;1570;1551;1532;1525;1515;1508;1505;1499;1500;1495;1490;1484;1464;1471;1476;1475;1490;1519;1564;1617;1669;1709;1742;1762;1777;1781;1780;1778;1780;1786;1794;1787;1789;1791;1787;1781;1785;1779;1782;1775;1772;1761;1741;1716;1671;1635;1587;1545;1521;1504;1500;1497;1503;1508;1520;1530;1544;1561;1580;1600;1620;1639;1656;1668;1677;1685;1687;1690;1692;1697;1701;1702;1703;1705;1704;1699;1699;1700;1697;1696;1694;1692;1691;1689;1683
Gyro Z : 1105;1069;1038;1008;978;952;929;908;893;883;877;875;875;878;882;889;898;910;924;940;959;983;1005;1030;1060;1087;1115;1131;1190;1255;1331;1435;1571;1724;1883;2040;2183;2307;2415;2506;2581;2643;2696;2737;2774;2807;2819;2838;2855;2871;2889;2897;2916;2925;2940;2960;2974;2987;2994;2986;2960;2917;2862;2793;2715;2626;2539;2457;2376;2300;2227;2155;2084;2012;1944;1884;1834;1795;1765;1745;1734;1728;1727;1727;1731;1738;1740;1741;1745;1747;1751;1753;1758;1759;1762;1760;1761;1760;1758;1755
COMMAND 1 SAMPLE 40
Accel X : 3574;3559;3559;3546;3536;3509;3480;3391;3313;3247;3200;3186;3130;3027;2896;2769;2647;2509;2393;2292;2191;2080;2036;1883;1795;1741;1599;1428;1247;1127;1016;865;646;557;466;371;237;82;56;71;63;56;140;222;322;387;481;629;830;938;1037;1129;1244;1391;1522;1651;1730;1828;1906;1951;2001;2083;2173;2305;2427;2595;3063;3627;3811;3691;3566;3579;3791;3948;3960;3931;3804;3683;3553;3379;3289;3224;3166;3101;3044;2986;2941;2893;2891;2833;2823;2765;2746;2783;2809;2810;2825;2842;2803;2840
Accel Y : 2175;2138;2160;2143;2149;2146;2104;2118;2091;2087;2116;2094;2120;2096;2117;2148;2189;2184;2194;2201;2251;2205;2256;2285;2200;2225;2214;2212;2181;2126;2109;1997;1964;1954;1863;1837;1785;1747;1727;1712;1682;1653;1648;1635;1639;1606;1625;1646;1655;1649;1670;1701;1716;1775;1782;1840;1859;1900;1951;1982;2057;2084;2234;2379;2449;2569;2699;2852;2805;2837;2927;2888;2871;2827;2683;2515;2413;2350;2273;2199;2128;2074;2017;2003;1968;2008;1999;2010;1993;2007;1967;1977;1960;1958;1955;2030;2009;2003;2001;1989
Accel Z : 1817;1847;1749;1771;1702;1734;1699;1724;1720;1698;1743;1797;1812;1845;1808;1794;1803;1819;1780;1799;1731;1740;1716;1719;1688;1705;1709;1684;1638;1620;1580;1571;1528;1602;1640;1693;1686;1753;1774;1785;1783;1784;1827;1777;1758;1725;1726;1748;1775;1782;1808;1811;1816;1776;1744;1719;1778;1837;1896;1916;1879;1866;1802;1762;1661;1666;1768;1954;1948;1883;1791;1760;1841;1957;2029;2054;2026;2024;1985;1987;2004;2041;2035;2057;2047;2069;2053;2009;2033;2004;2028;2041;2051;2055;2074;2064;2042;2032;2043;2025
Gyro X : 1985;1995;2001;2018;2022;2025;2041;2049;2070;2082;2098;2118;2144;2183;2242;2299;2339;2372;2388;2388;2378;2336;2264;2219;2179;2141;2088;1996;1929;1883;1848;1815;1812;1822;1819;1810;1822;1841;1862;1876;1862;1815;1725;1630;1562;1535;1535;1537;1512;1527;1550;1577;1576;1484;1359;1240;1123;1052;1163;1426;1652;1856;1996;2068;2159;2266;2333;2341;2270;2146;2010;1891;1807;1766;1751;1749;1775;1805;1835;1867;1891;1894;1876;1845;1821;1811;1798;1792;1791;1793;1801;1814;1838;1852;1859;1865;1867;1870;1868;1868
